t_s,phase,roll,pitch,yaw,gyro_x,gyro_y,gyro_z,acc_x,acc_y,acc_z,quat_w,quat_x,quat_y,quat_z,imu_temp,power_v,power_a,foot0,foot1,foot2,foot3,FR_hip_cmd,FR_hip_q,FR_hip_dq,FR_hip_tau,FR_thigh_cmd,FR_thigh_q,FR_thigh_dq,FR_thigh_tau,FR_calf_cmd,FR_calf_q,FR_calf_dq,FR_calf_tau,FL_hip_cmd,FL_hip_q,FL_hip_dq,FL_hip_tau,FL_thigh_cmd,FL_thigh_q,FL_thigh_dq,FL_thigh_tau,FL_calf_cmd,FL_calf_q,FL_calf_dq,FL_calf_tau,RR_hip_cmd,RR_hip_q,RR_hip_dq,RR_hip_tau,RR_thigh_cmd,RR_thigh_q,RR_thigh_dq,RR_thigh_tau,RR_calf_cmd,RR_calf_q,RR_calf_dq,RR_calf_tau,RL_hip_cmd,RL_hip_q,RL_hip_dq,RL_hip_tau,RL_thigh_cmd,RL_thigh_q,RL_thigh_dq,RL_thigh_tau,RL_calf_cmd,RL_calf_q,RL_calf_dq,RL_calf_tau
0.0000,B,-0.01063,-0.00132,-2.19283,-0.00426,0.03515,-0.04155,-0.39983,-0.01556,9.52533,-0.456777,0.003014,-0.004428,0.889565,79,30.297,17.330,101,15,29,15,0.00000,-0.00643,0.07751,6.5062,0.61018,0.61150,-0.32554,3.7850,-1.21323,-1.23397,0.83105,10.2416,0.00000,0.00185,-0.07751,-1.9296,0.61018,0.61332,-0.29454,1.3606,-1.21323,-1.22949,0.70770,6.4959,0.00000,-0.01606,0.21315,14.8182,0.61018,0.61525,-0.40305,0.0495,-1.21323,-1.22800,0.83307,3.8406,0.00000,0.02336,-0.17827,-21.8439,0.61018,0.61755,-0.34105,-2.4986,-1.21323,-1.23119,0.81689,7.2545
0.0020,B,-0.01064,-0.00121,-2.19289,-0.00426,0.06498,-0.03196,-0.39983,-0.01556,9.52533,-0.456750,0.002969,-0.004457,0.889579,79,30.297,17.535,101,15,29,15,0.00000,-0.00649,-0.05038,6.6051,0.61018,0.61089,-0.36430,3.3397,-1.21323,-1.23154,0.79869,9.5778,0.00000,0.00195,0.10076,-2.2017,0.61018,0.61286,-0.31004,0.6927,-1.21323,-1.22729,0.66726,5.8795,0.00000,-0.01570,0.15502,14.9667,0.61018,0.61473,-0.32554,-0.1732,-1.21323,-1.22674,0.79263,4.3148,0.00000,0.02305,-0.20153,-21.9429,0.61018,0.61697,-0.32554,-2.8449,-1.21323,-1.22999,0.86138,6.2114
0.0040,B,-0.01065,-0.00107,-2.19296,-0.02450,0.06285,-0.03409,-0.48961,-0.17358,9.22007,-0.456723,0.002910,-0.004493,0.889593,79,30.288,17.604,101,15,29,15,0.00000,-0.00643,0.03876,6.6051,0.61018,0.60983,-0.41856,3.8097,-1.21323,-1.23034,0.73803,9.7675,0.00000,0.00188,0.05038,-1.9296,0.61018,0.61183,-0.33330,0.8658,-1.21323,-1.22612,0.73399,6.2114,0.00000,-0.01548,0.08914,14.9914,0.61018,0.61358,-0.44569,-0.2474,-1.21323,-1.22437,0.77039,4.9786,0.00000,0.02263,-0.17827,-21.8192,0.61018,0.61634,-0.40305,-2.6470,-1.21323,-1.22737,0.79869,6.8278
0.0060,B,-0.01065,-0.00101,-2.19305,-0.00852,0.02983,-0.04368,-0.48961,-0.17358,9.22007,-0.456682,0.002881,-0.004508,0.889614,79,30.297,17.638,101,15,29,15,0.00000,-0.00643,0.03876,6.5556,0.61018,0.60941,-0.34105,3.4881,-1.21323,-1.22786,0.85936,8.8192,0.00000,0.00188,0.04263,-2.1275,0.61018,0.61132,-0.32167,0.9648,-1.21323,-1.22374,0.78050,4.8363,0.00000,-0.01527,0.06976,14.9172,0.61018,0.61292,-0.42631,0.1484,-1.21323,-1.22298,0.83105,3.7932,0.00000,0.02245,-0.13177,-22.0913,0.61018,0.61513,-0.34492,-2.3254,-1.21323,-1.22601,0.77241,7.1123
0.0080,B,-0.01070,-0.00088,-2.19313,-0.03302,0.07137,-0.04155,-0.48961,-0.17358,9.22007,-0.456648,0.002834,-0.004560,0.889631,79,30.128,22.560,101,15,29,15,0.00000,-0.00624,0.25191,8.4852,0.61018,0.60874,-0.38755,3.9581,-1.21323,-1.22645,0.93013,12.3753,0.00000,0.00173,-0.14339,-4.2302,0.61018,0.61086,-0.27516,0.9401,-1.21323,-1.22220,0.98270,7.7761,0.00000,-0.01379,0.50769,15.1151,0.61018,0.61231,-0.36817,0.0000,-1.21323,-1.22145,0.98270,7.3019,0.00000,0.02193,-0.33717,-24.0209,0.61018,0.61467,-0.31779,-3.1665,-1.21323,-1.22478,0.95843,10.2416
0.0100,B,-0.01076,-0.00076,-2.19317,-0.03409,0.05220,-0.02344,-0.47046,-0.00479,9.48822,-0.456629,0.002795,-0.004611,0.889641,79,30.199,19.518,101,15,29,15,0.00000,-0.00552,0.44569,6.4567,0.61018,0.60829,-0.22478,3.7850,-1.21323,-1.22475,1.07369,9.6727,0.00000,0.00082,-0.43406,-1.5585,0.61018,0.61032,-0.25191,1.3606,-1.21323,-1.22051,1.03931,5.4053,0.00000,-0.01321,0.29066,15.7088,0.61018,0.61183,-0.31779,-0.0247,-1.21323,-1.21968,1.08582,4.9786,0.00000,0.02121,-0.39143,-23.2787,0.61018,0.61386,-0.41081,-1.7069,-1.21323,-1.22080,1.22736,5.6424
0.0120,B,-0.01090,-0.00063,-2.19323,-0.06285,0.06711,-0.02557,-0.47046,-0.00479,9.48822,-0.456602,0.002769,-0.004703,0.889655,79,30.199,20.099,101,15,29,15,0.00000,-0.00515,0.21315,7.5204,0.61018,0.60787,-0.20540,4.0571,-1.21323,-1.22303,0.94428,9.0563,0.00000,0.00049,-0.17827,-3.1665,0.61018,0.61002,-0.12402,1.0885,-1.21323,-1.21878,0.95843,4.3148,0.00000,-0.01279,0.25578,15.7583,0.61018,0.61122,-0.15502,0.0495,-1.21323,-1.21780,1.09189,3.5087,0.00000,0.02081,-0.25578,-23.7488,0.61018,0.61361,-0.15502,-2.6717,-1.21323,-1.21906,0.97865,5.4053
0.0140,B,-0.01085,-0.00049,-2.19326,0.00959,0.07883,-0.01917,-0.47645,-0.37948,10.84573,-0.456587,0.002692,-0.004714,0.889662,79,30.226,18.903,101,15,29,15,0.00000,-0.00491,0.07363,7.2731,0.61018,0.60744,-0.26354,4.7003,-1.21323,-1.22176,0.68951,8.8666,0.00000,0.00019,-0.09689,-2.5480,0.61018,0.60962,-0.27904,1.7069,-1.21323,-1.21739,0.74612,4.3148,0.00000,-0.01243,0.13177,15.6593,0.61018,0.61092,-0.17052,0.1484,-1.21323,-1.21636,0.77847,3.5087,0.00000,0.02000,-0.31004,-23.3282,0.61018,0.61307,-0.25191,-1.4843,-1.21323,-1.21772,0.71579,5.5001
0.0160,B,-0.01084,-0.00036,-2.19333,-0.01598,0.02876,-0.04368,-0.47645,-0.37948,10.84573,-0.456559,0.002633,-0.004740,0.889677,79,30.243,18.766,101,16,30,18,0.00000,-0.00473,0.11239,7.2978,0.61018,0.60672,-0.19378,4.7498,-1.21323,-1.22077,0.48124,9.0563,0.00000,0.00004,-0.05038,-2.7707,0.61018,0.60899,-0.11627,2.0038,-1.21323,-1.21641,0.50550,4.5993,0.00000,-0.01215,0.14727,15.8325,0.61018,0.61080,-0.07751,0.0000,-1.21323,-1.21521,0.59852,3.4139,0.00000,0.01969,-0.15115,-23.1798,0.61018,0.61283,-0.12789,-1.7812,-1.21323,-1.21679,0.43271,5.8320
0.0180,B,-0.01079,-0.00036,-2.19339,0.02663,-0.01491,-0.02876,-0.47645,-0.37948,10.84573,-0.456531,0.002623,-0.004715,0.889691,79,30.252,18.424,101,16,30,18,0.00000,-0.00449,0.17052,7.0751,0.61018,0.60647,-0.14339,4.9229,-1.21323,-1.22023,0.35587,9.1985,0.00000,-0.00023,-0.13952,-2.2512,0.61018,0.60871,-0.16277,2.0038,-1.21323,-1.21582,0.40642,4.4096,0.00000,-0.01200,0.08139,15.9315,0.61018,0.61071,-0.07363,-0.0247,-1.21323,-1.21383,0.38216,3.4139,0.00000,0.01942,-0.18603,-23.2292,0.61018,0.61222,-0.03488,-1.5833,-1.21323,-1.21608,0.35385,5.7846
0.0200,B,-0.01080,-0.00031,-2.19346,-0.01065,0.04581,-0.03409,-0.15682,-0.20470,9.09916,-0.456501,0.002602,-0.004733,0.889707,79,30.270,18.151,101,16,30,18,0.00000,-0.00443,0.03100,7.2978,0.61018,0.60632,-0.11239,4.6013,-1.21323,-1.21974,0.23860,9.2459,0.00000,-0.00033,0.00775,-2.6223,0.61018,0.60862,-0.06976,1.7069,-1.21323,-1.21535,0.25680,4.6941,0.00000,-0.01191,0.01938,16.0057,0.61018,0.61059,-0.10851,0.0247,-1.21323,-1.21333,0.29521,3.3191,0.00000,0.01909,-0.23641,-22.6603,0.61018,0.61216,-0.03488,-1.9791,-1.21323,-1.21566,0.29926,5.7846
0.0220,B,-0.01081,-0.00030,-2.19355,0.00213,-0.01278,-0.04155,-0.15682,-0.20470,9.09916,-0.456461,0.002599,-0.004739,0.889727,79,30.279,17.672,101,14,30,18,0.00000,-0.00431,0.06588,7.0009,0.61018,0.60617,-0.06976,4.9229,-1.21323,-1.21903,0.17187,9.0089,0.00000,-0.00045,-0.02713,-2.3254,0.61018,0.60853,-0.03488,1.8059,-1.21323,-1.21475,0.13750,4.8837,0.00000,-0.01179,0.07751,16.0551,0.61018,0.61056,-0.03876,-0.0495,-1.21323,-1.21293,0.21029,3.2242,0.00000,0.01888,-0.29066,-22.4129,0.61018,0.61192,-0.14339,-1.6080,-1.21323,-1.21529,0.18603,5.9743
0.0240,B,-0.01081,-0.00035,-2.19363,-0.02450,-0.02983,-0.04261,-0.11732,0.34716,7.78235,-0.456426,0.002624,-0.004731,0.889745,79,30.297,17.193,101,14,30,14,0.00000,-0.00406,0.12014,6.9267,0.61018,0.60608,-0.08526,4.8240,-1.21323,-1.21873,0.15974,8.6295,0.00000,-0.00063,-0.07363,-2.3996,0.61018,0.60847,-0.03100,1.7812,-1.21323,-1.21451,0.14356,4.8363,0.00000,-0.01152,0.11239,15.5109,0.61018,0.61049,-0.02713,0.0495,-1.21323,-1.21265,0.14761,3.2242,0.00000,0.01854,-0.24803,-22.0665,0.61018,0.61201,0.06201,-2.0285,-1.21323,-1.21470,0.16783,5.7846
0.0260,B,-0.01084,-0.00038,-2.19367,-0.02663,-0.01704,-0.02557,-0.11732,0.34716,7.78235,-0.456405,0.002643,-0.004738,0.889755,79,30.314,16.373,101,14,30,14,0.00000,-0.00397,0.08139,6.7041,0.61018,0.60602,-0.05038,4.9477,-1.21323,-1.21844,0.18603,8.3925,0.00000,-0.00066,0.02713,-2.3007,0.61018,0.60850,0.02713,1.6327,-1.21323,-1.21432,0.09706,4.5993,0.00000,-0.01131,0.09689,14.8924,0.61018,0.61043,-0.03876,0.0000,-1.21323,-1.21246,0.11525,3.3191,0.00000,0.01836,-0.14727,-21.8686,0.61018,0.61186,-0.08139,-1.6080,-1.21323,-1.21448,0.13952,5.5950
0.0280,B,-0.01083,-0.00042,-2.19373,-0.01065,-0.01278,-0.02237,-0.11732,0.34716,7.78235,-0.456379,0.002660,-0.004721,0.889769,79,30.350,15.484,101,14,27,11,0.00000,-0.00382,0.10851,6.4567,0.61018,0.60584,-0.11239,4.9477,-1.21323,-1.21808,0.22444,8.0606,0.00000,-0.00072,0.01163,-2.3254,0.61018,0.60844,0.01163,1.7317,-1.21323,-1.21408,0.09706,4.2199,0.00000,-0.01088,0.19378,14.1503,0.61018,0.61043,0.01163,-0.0247,-1.21323,-1.21232,0.07684,3.4139,0.00000,0.01763,-0.22478,-21.0275,0.61018,0.61183,-0.02713,-2.0038,-1.21323,-1.21426,0.12739,5.4053
0.0300,B,-0.01084,-0.00045,-2.19379,-0.00320,-0.01065,-0.02770,0.23583,-0.38307,7.57765,-0.456354,0.002676,-0.004721,0.889782,79,30.385,14.356,101,14,27,11,0.00000,-0.00376,0.05426,6.5556,0.61018,0.60584,-0.06201,4.7250,-1.21323,-1.21783,0.21636,7.6338,0.00000,-0.00087,-0.09689,-2.0780,0.61018,0.60838,0.01163,1.7317,-1.21323,-1.21385,0.11121,4.0303,0.00000,-0.01037,0.25191,13.2597,0.61018,0.61040,-0.03876,-0.0495,-1.21323,-1.21220,0.02629,3.4613,0.00000,0.01715,-0.31779,-19.9885,0.61018,0.61189,0.06201,-1.8059,-1.21323,-1.21405,0.10110,5.2157
0.0320,B,-0.01079,-0.00047,-2.19386,0.02237,-0.00533,-0.03622,0.23583,-0.38307,7.57765,-0.456325,0.002670,-0.004691,0.889797,79,30.438,13.331,101,14,26,11,0.00000,-0.00361,0.11239,6.3577,0.61018,0.60578,-0.09689,4.8487,-1.21323,-1.21729,0.13547,7.1123,0.00000,-0.00090,-0.01163,-2.1028,0.61018,0.60832,-0.01550,1.7317,-1.21323,-1.21364,0.12739,3.8406,0.00000,-0.00982,0.31779,12.4928,0.61018,0.61040,-0.02713,-0.0495,-1.21323,-1.21216,0.01820,3.4613,0.00000,0.01663,-0.28679,-19.2711,0.61018,0.61183,0.00388,-1.9296,-1.21323,-1.21386,0.08088,5.0260
0.0340,B,-0.01060,-0.00053,-2.19399,0.08948,-0.00746,-0.04261,0.92296,-0.55426,6.94438,-0.456266,0.002652,-0.004594,0.889828,79,30.474,12.203,101,14,26,11,0.00000,-0.00361,0.09689,6.4072,0.61018,0.60584,0.05426,4.7250,-1.21323,-1.21704,0.12941,7.0174,0.00000,-0.00102,-0.04651,-1.9048,0.61018,0.60829,0.02325,2.0038,-1.21323,-1.21341,0.13143,3.6035,0.00000,-0.00934,0.26354,12.2949,0.61018,0.61037,-0.06201,-0.0495,-1.21323,-1.21211,0.03033,3.4613,0.00000,0.01609,-0.32167,-18.7021,0.61018,0.61180,0.05813,-1.6080,-1.21323,-1.21372,0.09099,4.9786
0.0360,B,-0.01051,-0.00055,-2.19403,0.08309,-0.00852,-0.04794,0.92296,-0.55426,6.94438,-0.456245,0.002641,-0.004551,0.889839,79,30.491,11.929,101,15,26,11,0.00000,-0.00352,0.07751,6.4567,0.61018,0.60581,0.03100,4.8982,-1.21323,-1.21704,0.12941,7.0174,0.00000,-0.00117,-0.07751,-1.5833,0.61018,0.60832,0.03488,1.7069,-1.21323,-1.21320,0.08897,3.4613,0.00000,-0.00861,0.28679,11.3549,0.61018,0.61043,0.05426,-0.1237,-1.21323,-1.21208,0.02629,3.3191,0.00000,0.01545,-0.34492,-18.5290,0.61018,0.61180,0.05813,-1.6080,-1.21323,-1.21360,0.04651,4.8363
0.0380,B,-0.01031,-0.00059,-2.19415,0.10972,-0.00959,-0.06605,0.92296,-0.55426,6.94438,-0.456195,0.002613,-0.004452,0.889865,79,30.509,11.485,101,15,26,11,0.00000,-0.00352,0.03100,6.5804,0.61018,0.60581,-0.00388,4.6261,-1.21323,-1.21675,0.10717,6.8278,0.00000,-0.00132,-0.04651,-1.4596,0.61018,0.60829,0.01550,1.8801,-1.21323,-1.21298,0.05864,3.4139,0.00000,-0.00819,0.24028,11.0580,0.61018,0.61034,-0.06201,0.0000,-1.21323,-1.21206,0.03842,3.4139,0.00000,0.01512,-0.12014,-17.9353,0.61018,0.61171,-0.00775,-1.6327,-1.21323,-1.21341,0.03437,4.6941
0.0400,B,-0.01007,-0.00067,-2.19428,0.11079,-0.02557,-0.06924,0.30406,-0.00718,5.04339,-0.456137,0.002594,-0.004331,0.889895,79,30.527,11.075,101,15,27,11,0.00000,-0.00355,0.03876,6.6546,0.61018,0.60581,-0.03488,4.6013,-1.21323,-1.21638,0.12941,6.5907,0.00000,-0.00145,-0.08914,-1.3853,0.61018,0.60841,0.15890,1.5090,-1.21323,-1.21271,0.05662,3.2242,0.00000,-0.00758,0.13177,10.6622,0.61018,0.61037,-0.01550,-0.0495,-1.21323,-1.21206,0.01618,3.5087,0.00000,0.01458,-0.38755,-17.6631,0.61018,0.61180,0.09301,-2.1028,-1.21323,-1.21334,0.02022,4.7889
0.0420,B,-0.00981,-0.00072,-2.19443,0.13955,-0.02557,-0.07350,0.30406,-0.00718,5.04339,-0.456069,0.002558,-0.004198,0.889931,79,30.536,10.460,101,15,27,10,0.00000,-0.00355,0.00000,6.5804,0.61018,0.60584,0.00000,4.6261,-1.21323,-1.21623,0.09503,6.4959,0.00000,-0.00148,-0.00388,-1.4101,0.61018,0.60841,0.08914,1.6327,-1.21323,-1.21257,0.06673,3.0346,0.00000,-0.00731,0.15502,10.7117,0.61018,0.61040,0.04263,-0.0247,-1.21323,-1.21206,0.03033,3.5087,0.00000,0.01421,-0.24028,-17.1684,0.61018,0.61174,0.03876,-1.7812,-1.21323,-1.21323,-0.01415,4.8363
0.0440,B,-0.00956,-0.00080,-2.19458,0.11079,-0.01598,-0.07670,0.01676,0.29209,5.38097,-0.456004,0.002536,-0.004073,0.889965,79,30.562,10.220,101,15,27,10,0.00000,-0.00352,0.02713,6.5556,0.61018,0.60584,-0.02325,4.4776,-1.21323,-1.21611,0.09301,6.4484,0.00000,-0.00160,0.05813,-1.3111,0.61018,0.60844,0.04263,1.3111,-1.21323,-1.21244,0.08492,2.9871,0.00000,-0.00719,0.00388,10.7612,0.61018,0.61034,-0.03876,0.0000,-1.21323,-1.21206,0.02426,3.4613,0.00000,0.01385,-0.17440,-16.7478,0.61018,0.61183,0.04651,-2.0780,-1.21323,-1.21317,0.02629,4.6941
0.0460,B,-0.00933,-0.00088,-2.19474,0.09587,-0.02876,-0.07563,0.01676,0.29209,5.38097,-0.455933,0.002519,-0.003954,0.890001,79,30.562,10.015,101,15,28,10,0.00000,-0.00346,0.09301,6.5804,0.61018,0.60593,-0.00388,4.5271,-1.21323,-1.21603,0.05257,6.4959,0.00000,-0.00169,-0.03100,-1.4843,0.61018,0.60856,0.10851,1.4596,-1.21323,-1.21235,0.04853,2.7975,0.00000,-0.00710,-0.01163,11.0828,0.61018,0.61037,0.00000,-0.0742,-1.21323,-1.21209,-0.03842,3.4139,0.00000,0.01306,-0.39143,-16.2531,0.61018,0.61183,0.01938,-1.8801,-1.21323,-1.21312,0.02022,4.6941
0.0480,B,-0.00921,-0.00091,-2.19489,0.03515,0.00107,-0.08309,0.01676,0.29209,5.38097,-0.455865,0.002506,-0.003892,0.890037,79,30.571,9.913,101,15,28,10,0.00000,-0.00343,0.09689,6.4814,0.61018,0.60596,0.00000,4.4776,-1.21323,-1.21598,0.02022,6.4484,0.00000,-0.00166,0.07751,-1.4101,0.61018,0.60862,0.10851,1.2122,-1.21323,-1.21225,0.05459,2.7027,0.00000,-0.00704,0.00388,11.1570,0.61018,0.61037,0.02713,-0.0247,-1.21323,-1.21205,0.02224,3.4139,0.00000,0.01291,-0.13177,-16.2531,0.61018,0.61192,0.03100,-1.9791,-1.21323,-1.21309,0.06875,4.6467
0.0500,B,-0.00913,-0.00095,-2.19505,0.01704,-0.00320,-0.08309,0.22266,0.59376,5.09486,-0.455793,0.002504,-0.003848,0.890074,79,30.571,10.015,101,15,28,10,0.00000,-0.00346,-0.02713,6.3825,0.61018,0.60599,0.00000,4.4282,-1.21323,-1.21590,0.07279,6.5907,0.00000,-0.00172,-0.03488,-1.5585,0.61018,0.60862,-0.01938,1.2864,-1.21323,-1.21216,0.03235,2.6552,0.00000,-0.00710,-0.08526,11.4291,0.61018,0.61034,-0.06588,-0.0495,-1.21323,-1.21205,0.01820,3.4613,0.00000,0.01267,-0.13564,-16.2531,0.61018,0.61198,0.07751,-2.2264,-1.21323,-1.21306,0.00404,4.6941
0.0520,B,-0.00917,-0.00096,-2.19523,-0.03409,0.01491,-0.08948,0.22266,0.59376,5.09486,-0.455713,0.002516,-0.003865,0.890115,79,30.562,10.084,101,15,27,10,0.00000,-0.00337,0.03876,6.3083,0.61018,0.60608,0.04651,4.2797,-1.21323,-1.21587,0.00809,6.5907,0.00000,-0.00169,0.00000,-1.6327,0.61018,0.60871,0.07363,1.1627,-1.21323,-1.21202,0.01415,2.6552,0.00000,-0.00710,0.04651,11.6023,0.61018,0.61037,0.00000,0.0247,-1.21323,-1.21203,0.00607,3.4139,0.00000,0.01258,-0.08526,-16.3520,0.61018,0.61201,0.03876,-2.2264,-1.21323,-1.21299,0.02426,4.5044
0.0540,B,-0.00934,-0.00091,-2.19542,-0.12251,0.05007,-0.09374,0.45011,0.91339,5.53061,-0.455630,0.002531,-0.003949,0.890157,79,30.562,10.084,101,15,27,12,0.00000,-0.00334,0.00775,6.1846,0.61018,0.60608,-0.00775,4.4034,-1.21323,-1.21587,-0.01820,6.5907,0.00000,-0.00163,0.04263,-1.8801,0.61018,0.60877,0.01550,0.9895,-1.21323,-1.21200,0.00404,2.7027,0.00000,-0.00710,-0.01163,11.3549,0.61018,0.61037,0.00775,-0.0247,-1.21323,-1.21200,0.04853,3.3191,0.00000,0.01246,-0.22866,-16.6736,0.61018,0.61210,0.03876,-2.6223,-1.21323,-1.21295,-0.03235,4.4570
0.0560,B,-0.00954,-0.00086,-2.19560,-0.12570,0.02983,-0.09481,0.45011,0.91339,5.53061,-0.455550,0.002557,-0.004050,0.890197,79,30.553,10.289,101,15,27,12,0.00000,-0.00328,0.09689,6.3083,0.61018,0.60623,0.05426,4.1066,-1.21323,-1.21585,0.03235,6.4959,0.00000,-0.00157,0.03100,-1.7812,0.61018,0.60883,0.05426,1.0390,-1.21323,-1.21202,0.02224,2.8449,0.00000,-0.00704,0.01938,11.1570,0.61018,0.61037,-0.01938,-0.0495,-1.21323,-1.21202,0.00202,3.4613,0.00000,0.01261,-0.01938,-16.6736,0.61018,0.61219,0.03876,-2.4986,-1.21323,-1.21295,-0.03437,4.6941
0.0580,B,-0.00975,-0.00078,-2.19578,-0.13635,0.05752,-0.09800,0.45011,0.91339,5.53061,-0.455467,0.002570,-0.004163,0.890239,79,30.562,10.220,101,15,26,14,0.00000,-0.00334,-0.02325,6.3825,0.61018,0.60623,0.05426,4.1066,-1.21323,-1.21584,0.02022,6.4959,0.00000,-0.00148,0.09301,-1.9296,0.61018,0.60890,0.07751,0.9648,-1.21323,-1.21202,-0.02426,2.8923,0.00000,-0.00701,-0.00775,11.1322,0.61018,0.61034,-0.03876,0.0247,-1.21323,-1.21202,0.00000,3.4139,0.00000,0.01267,0.07751,-16.9705,0.61018,0.61222,0.01938,-2.5233,-1.21323,-1.21295,-0.02022,4.5993
0.0600,B,-0.00995,-0.00068,-2.19596,-0.10759,0.07031,-0.08948,0.33399,0.06225,6.73848,-0.455390,0.002571,-0.004274,0.890278,79,30.562,10.220,101,15,26,14,0.00000,-0.00331,-0.00388,6.4072,0.61018,0.60638,0.08526,3.9581,-1.21323,-1.21587,-0.01415,6.5907,0.00000,-0.00151,0.06588,-1.8801,0.61018,0.60899,0.04651,0.9895,-1.21323,-1.21202,-0.00809,2.9871,0.00000,-0.00695,-0.02713,10.9096,0.61018,0.61037,0.01938,-0.0247,-1.21323,-1.21200,0.01213,3.4139,0.00000,0.01255,-0.01163,-16.7478,0.61018,0.61237,0.09689,-2.8696,-1.21323,-1.21295,-0.03437,4.6941
0.0620,B,-0.01013,-0.00057,-2.19615,-0.10972,0.07670,-0.10013,0.33399,0.06225,6.73848,-0.455305,0.002559,-0.004380,0.890321,79,30.553,10.289,101,15,27,14,0.00000,-0.00337,0.05038,6.4567,0.61018,0.60635,-0.02713,4.0076,-1.21323,-1.21587,-0.02224,6.5907,0.00000,-0.00142,0.06976,-2.0038,0.61018,0.60908,0.07363,0.6927,-1.21323,-1.21203,-0.00809,2.8923,0.00000,-0.00686,0.03100,11.0333,0.61018,0.61037,0.01550,-0.0247,-1.21323,-1.21198,0.01415,3.3191,0.00000,0.01270,0.08139,-16.7478,0.61018,0.61240,0.01163,-2.6717,-1.21323,-1.21295,-0.01618,4.6467
0.0640,B,-0.01030,-0.00040,-2.19632,-0.10653,0.11292,-0.08309,0.12929,-0.62489,7.45195,-0.455230,0.002520,-0.004493,0.890359,79,30.562,10.220,101,16,27,17,0.00000,-0.00334,0.00000,6.4814,0.61018,0.60641,0.00000,3.9581,-1.21323,-1.21587,-0.00607,6.6855,0.00000,-0.00139,-0.00388,-2.1275,0.61018,0.60911,0.06588,0.8658,-1.21323,-1.21208,-0.02629,3.0346,0.00000,-0.00679,0.06201,11.1322,0.61018,0.61037,-0.00775,-0.0495,-1.21323,-1.21200,-0.01820,3.4139,0.00000,0.01270,0.09689,-16.8715,0.61018,0.61255,0.07363,-2.7212,-1.21323,-1.21295,-0.01415,4.5993
0.0660,B,-0.01042,-0.00020,-2.19651,-0.07670,0.12144,-0.09481,0.12929,-0.62489,7.45195,-0.455144,0.002460,-0.004595,0.890403,79,30.562,10.152,101,16,27,17,0.00000,-0.00331,0.06588,6.4567,0.61018,0.60644,-0.03100,3.9581,-1.21323,-1.21589,-0.00202,6.6381,0.00000,-0.00132,0.03876,-2.0285,0.61018,0.60917,0.03488,0.5937,-1.21323,-1.21214,-0.06470,3.0346,0.00000,-0.00679,0.01938,11.1322,0.61018,0.61031,-0.06588,0.0742,-1.21323,-1.21198,0.02022,3.3191,0.00000,0.01270,0.06201,-16.9457,0.61018,0.61255,0.04263,-2.6470,-1.21323,-1.21295,-0.00809,4.6941
0.0680,B,-0.01054,0.00002,-2.19667,-0.05433,0.11611,-0.08735,0.12929,-0.62489,7.45195,-0.455071,0.002392,-0.004698,0.890439,79,30.553,10.494,101,16,27,17,0.00000,-0.00334,0.00000,6.4567,0.61018,0.60650,0.01163,3.9581,-1.21323,-1.21590,-0.03640,6.6381,0.00000,-0.00126,0.04651,-2.2017,0.61018,0.60926,0.08914,0.6432,-1.21323,-1.21224,-0.04448,3.2242,0.00000,-0.00679,0.05426,11.2312,0.61018,0.61037,0.04651,-0.0247,-1.21323,-1.21197,0.04448,3.3191,0.00000,0.01267,-0.03876,-17.0694,0.61018,0.61267,0.03876,-3.0181,-1.21323,-1.21298,-0.04448,4.6941
0.0700,B,-0.01059,0.00023,-2.19684,-0.01917,0.13209,-0.08096,-0.31244,-0.63566,8.01579,-0.454998,0.002305,-0.004768,0.890477,79,30.553,10.357,101,16,27,18,0.00000,-0.00340,-0.00388,6.6051,0.61018,0.60656,0.00000,3.8097,-1.21323,-1.21592,0.02022,6.8278,0.00000,-0.00111,0.08526,-2.3007,0.61018,0.60926,0.03100,0.6679,-1.21323,-1.21230,-0.03842,3.2716,0.00000,-0.00692,-0.10076,11.4538,0.61018,0.61034,-0.00388,-0.0247,-1.21323,-1.21198,0.01820,3.3191,0.00000,0.01273,0.07363,-16.9952,0.61018,0.61264,0.01550,-2.7212,-1.21323,-1.21298,-0.02426,4.8363
0.0720,B,-0.01061,0.00049,-2.19700,-0.00852,0.13742,-0.07989,-0.31244,-0.63566,8.01579,-0.454928,0.002196,-0.004838,0.890512,79,30.544,10.460,101,16,27,18,0.00000,-0.00346,-0.03876,6.6793,0.61018,0.60666,0.05426,3.6613,-1.21323,-1.21598,-0.03235,6.8752,0.00000,-0.00102,0.08914,-2.4491,0.61018,0.60932,0.06201,0.5937,-1.21323,-1.21239,-0.07279,3.4613,0.00000,-0.00692,0.01163,11.3549,0.61018,0.61034,-0.01550,-0.0495,-1.21323,-1.21200,0.00000,3.4139,0.00000,0.01273,0.00775,-16.7973,0.61018,0.61274,0.06201,-3.0181,-1.21323,-1.21298,-0.02831,4.6941
0.0740,B,-0.01060,0.00078,-2.19716,0.00000,0.14807,-0.08842,-0.52672,-0.48722,9.02853,-0.454855,0.002064,-0.004895,0.890550,79,30.553,10.596,101,16,28,18,0.00000,-0.00352,-0.01938,6.8278,0.61018,0.60669,0.01938,3.5871,-1.21323,-1.21604,-0.02426,7.0648,0.00000,-0.00093,0.06588,-2.7212,0.61018,0.60938,-0.01163,0.5195,-1.21323,-1.21247,-0.07077,3.5087,0.00000,-0.00695,0.03488,11.5775,0.61018,0.61034,0.00000,0.0000,-1.21323,-1.21198,0.03640,3.6035,0.00000,0.01273,0.08914,-17.0447,0.61018,0.61274,0.04263,-2.8449,-1.21323,-1.21299,-0.03033,4.7889
0.0760,B,-0.01058,0.00107,-2.19733,0.00426,0.15020,-0.07670,-0.52672,-0.48722,9.02853,-0.454782,0.001930,-0.004954,0.890587,79,30.544,10.665,101,16,28,18,0.00000,-0.00358,-0.04651,6.8278,0.61018,0.60672,-0.01550,3.5376,-1.21323,-1.21620,-0.02831,7.2545,0.00000,-0.00087,0.06201,-2.5480,0.61018,0.60947,0.06976,0.3711,-1.21323,-1.21262,-0.04651,3.7932,0.00000,-0.00713,-0.05426,11.7012,0.61018,0.61034,0.00000,-0.0247,-1.21323,-1.21198,0.03033,3.3191,0.00000,0.01273,-0.04263,-16.9457,0.61018,0.61270,-0.03100,-2.8449,-1.21323,-1.21301,-0.03437,4.7889
0.0780,B,-0.01053,0.00134,-2.19748,0.02131,0.13955,-0.07883,-0.52672,-0.48722,9.02853,-0.454716,0.001798,-0.004996,0.890621,79,30.536,10.767,101,16,28,18,0.00000,-0.00373,0.00000,7.1246,0.61018,0.60678,0.01550,3.5871,-1.21323,-1.21630,0.00607,7.3967,0.00000,-0.00078,0.11239,-2.5975,0.61018,0.60950,0.03488,0.3711,-1.21323,-1.21271,-0.05864,3.6984,0.00000,-0.00716,-0.03100,11.6517,0.61018,0.61031,-0.03100,0.0247,-1.21323,-1.21200,0.00607,3.4613,0.00000,0.01276,0.00000,-16.8962,0.61018,0.61277,0.06201,-2.9191,-1.21323,-1.21299,0.00607,4.7889
0.0800,B,-0.01049,0.00162,-2.19763,0.02983,0.14701,-0.07031,-0.37828,-0.39504,10.43154,-0.454651,0.001662,-0.005039,0.890654,79,30.536,10.801,101,16,28,18,0.00000,-0.00379,0.02325,7.1741,0.61018,0.60684,0.05426,3.5623,-1.21323,-1.21642,-0.05459,7.5864,0.00000,-0.00063,0.05038,-2.8449,0.61018,0.60953,0.03876,0.3711,-1.21323,-1.21282,-0.06268,3.9829,0.00000,-0.00722,-0.03100,11.7012,0.61018,0.61034,0.02713,-0.0495,-1.21323,-1.21202,-0.01011,3.4139,0.00000,0.01279,0.06976,-17.1436,0.61018,0.61277,0.05813,-2.8202,-1.21323,-1.21301,-0.02022,4.7889
0.0820,B,-0.01050,0.00190,-2.19777,-0.00639,0.13529,-0.07563,-0.37828,-0.39504,10.43154,-0.454588,0.001542,-0.005109,0.890686,79,30.544,10.836,101,16,29,18,0.00000,-0.00391,0.00775,7.2731,0.61018,0.60684,-0.02713,3.4386,-1.21323,-1.21653,-0.07279,7.6812,0.00000,-0.00063,0.05038,-2.8449,0.61018,0.60953,-0.01163,0.4206,-1.21323,-1.21282,-0.06268,3.9829,0.00000,-0.00722,-0.03100,11.7012,0.61018,0.61034,0.00388,0.0495,-1.21323,-1.21202,-0.01618,3.4613,0.00000,0.01264,-0.21315,-16.9705,0.61018,0.61274,-0.01163,-2.9439,-1.21323,-1.21301,-0.02022,4.7889
0.0840,B,-0.01059,0.00242,-2.19802,-0.03409,0.11611,-0.05433,-0.86191,0.03472,10.85651,-0.454477,0.001328,-0.005267,0.890742,79,30.536,10.767,101,16,29,18,0.00000,-0.00400,-0.06201,7.1988,0.61018,0.60699,0.00388,3.2655,-1.21323,-1.21672,-0.05459,7.8709,0.00000,-0.00045,0.05813,-3.1170,0.61018,0.60965,0.01550,0.2474,-1.21323,-1.21307,-0.05055,4.3148,0.00000,-0.00728,0.00000,11.7507,0.61018,0.61034,0.00388,-0.0247,-1.21323,-1.21202,0.01415,3.4139,0.00000,0.01267,-0.13564,-16.8715,0.61018,0.61280,0.10851,-2.8449,-1.21323,-1.21301,-0.00607,4.7889
0.0880,B,-0.01068,0.00264,-2.19813,-0.05539,0.09694,-0.06605,-0.86191,0.03472,10.85651,-0.454426,0.001249,-0.005357,0.890767,79,30.527,11.007,101,16,29,18,0.00000,-0.00403,-0.05038,7.2978,0.61018,0.60702,0.01163,3.3891,-1.21323,-1.21696,-0.06470,8.0606,0.00000,-0.00039,0.03876,-3.1170,0.61018,0.60971,0.05426,0.1484,-1.21323,-1.21325,-0.04448,4.3148,0.00000,-0.00734,-0.03876,11.7507,0.61018,0.61034,-0.00775,0.0000,-1.21323,-1.21202,0.01415,3.4139,0.00000,0.01264,-0.17052,-17.1436,0.61018,0.61280,0.03488,-3.0428,-1.21323,-1.21306,-0.05662,4.7889
0.0900,B,-0.01077,0.00282,-2.19823,-0.05326,0.08522,-0.04474,-1.17675,0.10654,11.52928,-0.454386,0.001188,-0.005437,0.890788,79,30.536,11.041,101,16,29,18,0.00000,-0.00406,-0.00388,7.1988,0.61018,0.60708,0.00000,3.3397,-1.21323,-1.21705,-0.04651,8.1080,0.00000,-0.00033,0.03876,-3.0675,0.61018,0.60974,0.03876,0.1732,-1.21323,-1.21334,-0.05864,4.4570,0.00000,-0.00737,-0.06588,11.8744,0.61018,0.61031,-0.04651,0.0742,-1.21323,-1.21203,-0.01618,3.4613,0.00000,0.01276,0.03100,-17.0447,0.61018,0.61286,0.06588,-3.1912,-1.21323,-1.21304,-0.01213,4.7889
0.0920,B,-0.01090,0.00301,-2.19831,-0.09055,0.08416,-0.04474,-1.17675,0.10654,11.52928,-0.454351,0.001133,-0.005539,0.890805,79,30.536,10.938,101,16,29,18,0.00000,-0.00403,0.07363,7.1741,0.61018,0.60708,-0.05426,3.3397,-1.21323,-1.21715,-0.06470,8.1080,0.00000,-0.00027,0.05038,-3.2902,0.61018,0.60980,0.04263,0.0000,-1.21323,-1.21344,-0.07481,4.5044,0.00000,-0.00737,-0.04263,11.7507,0.61018,0.61034,0.00000,-0.0495,-1.21323,-1.21202,0.00809,3.3191,0.00000,0.01270,-0.08526,-16.7973,0.61018,0.61286,0.06588,-3.1912,-1.21323,-1.21306,-0.02022,4.7889
0.0940,B,-0.01099,0.00315,-2.19839,-0.04900,0.04368,-0.04900,-1.28808,-0.22386,11.65737,-0.454314,0.001093,-0.005613,0.890823,79,30.536,11.041,101,16,29,18,0.00000,-0.00406,-0.01163,7.1741,0.61018,0.60720,0.08526,3.1912,-1.21323,-1.21721,0.02629,8.1080,0.00000,-0.00023,0.04651,-3.1665,0.61018,0.60983,0.05038,0.0000,-1.21323,-1.21347,-0.04044,4.5993,0.00000,-0.00740,-0.07751,11.7754,0.61018,0.61034,0.00000,-0.0247,-1.21323,-1.21202,0.01415,3.3191,0.00000,0.01276,0.01550,-16.8715,0.61018,0.61286,0.03488,-3.1170,-1.21323,-1.21306,-0.01618,4.7889
0.0960,B,-0.01113,0.00327,-2.19845,-0.08735,0.04474,-0.02983,-1.28808,-0.22386,11.65737,-0.454289,0.001071,-0.005701,0.890836,79,30.536,10.870,101,16,29,18,0.00000,-0.00409,0.02325,7.1741,0.61018,0.60717,-0.01550,3.2655,-1.21323,-1.21729,-0.04448,8.0606,0.00000,-0.00014,0.10851,-3.3397,0.61018,0.60986,0.07363,0.1237,-1.21323,-1.21358,-0.05257,4.6467,0.00000,-0.00740,-0.10851,11.6765,0.61018,0.61028,-0.08526,0.0495,-1.21323,-1.21202,0.00000,3.4613,0.00000,0.01279,0.06588,-17.0447,0.61018,0.61289,0.04263,-2.9686,-1.21323,-1.21307,-0.02629,4.7889
0.0980,B,-0.01120,0.00336,-2.19849,-0.04581,0.03409,-0.02131,-1.28808,-0.22386,11.65737,-0.454270,0.001046,-0.005751,0.890845,79,30.527,11.041,101,16,28,18,0.00000,-0.00413,0.02713,7.2731,0.61018,0.60723,0.00000,3.2407,-1.21323,-1.21731,-0.03437,8.1080,0.00000,-0.00014,0.04263,-3.1170,0.61018,0.60992,0.09689,0.0247,-1.21323,-1.21360,-0.02629,4.5993,0.00000,-0.00734,0.00388,11.5528,0.61018,0.61034,-0.00775,-0.0495,-1.21323,-1.21202,-0.01011,3.4613,0.00000,0.01276,0.01163,-16.7478,0.61018,0.61301,0.15115,-3.1665,-1.21323,-1.21307,0.00809,4.7889
0.1000,B,-0.01128,0.00346,-2.19851,-0.04368,0.03302,-0.01491,-1.21027,-0.51954,11.84771,-0.454262,0.001021,-0.005812,0.890849,79,30.536,10.836,101,16,28,18,0.00000,-0.00413,0.02325,7.2731,0.61018,0.60726,0.01163,3.1418,-1.21323,-1.21729,0.00809,8.0131,0.00000,-0.00011,0.02713,-3.2655,0.61018,0.60986,-0.02713,0.2226,-1.21323,-1.21363,-0.02426,4.5993,0.00000,-0.00728,0.07751,11.4786,0.61018,0.61034,0.00000,0.0000,-1.21323,-1.21202,-0.01213,3.2716,0.00000,0.01279,-0.11239,-16.9952,0.61018,0.61298,0.08139,-3.1170,-1.21323,-1.21306,0.01011,4.7889
0.1020,B,-0.01132,0.00350,-2.19852,-0.02770,0.00959,-0.01811,-1.21027,-0.51954,11.84771,-0.454257,0.001012,-0.005838,0.890851,79,30.536,10.938,101,16,28,18,0.00000,-0.00413,0.01550,7.2731,0.61018,0.60729,-0.02713,3.1170,-1.21323,-1.21728,0.03033,8.0606,0.00000,-0.00008,0.07751,-3.2655,0.61018,0.60992,0.05426,0.0247,-1.21323,-1.21363,-0.01820,4.4096,0.00000,-0.00734,-0.05038,11.5775,0.61018,0.61031,-0.03876,-0.0247,-1.21323,-1.21202,-0.01820,3.2716,0.00000,0.01270,-0.08139,-16.5746,0.61018,0.61298,0.03876,-3.2407,-1.21323,-1.21306,-0.00202,4.8837
0.1040,B,-0.01137,0.00353,-2.19852,-0.02770,0.00320,0.00107,-1.27850,-0.46807,11.65019,-0.454256,0.001008,-0.005866,0.890851,79,30.536,10.836,101,16,28,18,0.00000,-0.00413,-0.02325,7.1741,0.61018,0.60729,-0.05038,3.1418,-1.21323,-1.21726,0.04853,8.0131,0.00000,-0.00008,0.07363,-3.1418,0.61018,0.60996,0.03876,0.0742,-1.21323,-1.21363,-0.02224,4.4570,0.00000,-0.00734,-0.11627,11.3796,0.61018,0.61034,-0.04651,-0.1484,-1.21323,-1.21200,0.00809,3.2716,0.00000,0.01267,-0.11239,-16.9705,0.61018,0.61298,-0.01938,-3.1665,-1.21323,-1.21307,-0.02629,4.7889
0.1060,B,-0.01137,0.00352,-2.19852,-0.01704,-0.02450,0.00107,-1.27850,-0.46807,11.65019,-0.454254,0.001015,-0.005865,0.890852,79,30.536,10.801,101,15,28,17,0.00000,-0.00406,0.05426,7.1741,0.61018,0.60738,0.03100,2.7707,-1.21323,-1.21729,-0.01213,8.0131,0.00000,-0.00014,-0.01550,-3.1418,0.61018,0.60992,0.00000,0.0495,-1.21323,-1.21363,0.00607,4.4570,0.00000,-0.00728,0.00388,11.6517,0.61018,0.61037,0.00000,0.0000,-1.21323,-1.21198,0.04246,3.4613,0.00000,0.01273,0.01938,-16.7478,0.61018,0.61307,0.00775,-3.3397,-1.21323,-1.21307,-0.02629,4.7889
0.1080,B,-0.01133,0.00349,-2.19854,0.02450,-0.02344,-0.00746,-1.27850,-0.46807,11.65019,-0.454248,0.001020,-0.005840,0.890856,79,30.544,10.767,101,15,28,17,0.00000,-0.00403,0.02325,7.0751,0.61018,0.60735,-0.03876,3.1665,-1.21323,-1.21726,0.03842,8.0606,0.00000,-0.00014,0.00775,-3.1170,0.61018,0.60992,0.00388,0.0495,-1.21323,-1.21361,-0.00809,4.5044,0.00000,-0.00725,-0.01938,11.3796,0.61018,0.61034,-0.03488,0.0000,-1.21323,-1.21200,0.01415,3.4613,0.00000,0.01273,0.05426,-16.8715,0.61018,0.61307,0.03876,-3.1912,-1.21323,-1.21306,-0.00404,4.7889
0.1100,B,-0.01134,0.00346,-2.19851,-0.01065,-0.03302,0.01065,-1.31442,-0.54109,11.00615,-0.454259,0.001034,-0.005836,0.890850,79,30.544,10.801,101,15,27,17,0.00000,-0.00403,0.05813,7.1246,0.61018,0.60741,-0.03488,3.0181,-1.21323,-1.21726,0.01820,7.9657,0.00000,-0.00020,0.06201,-3.0428,0.61018,0.60996,0.00000,0.0247,-1.21323,-1.21360,0.00809,4.4096,0.00000,-0.00725,-0.01550,11.4786,0.61018,0.61037,0.02325,-0.0742,-1.21323,-1.21198,0.00809,3.4613,0.00000,0.01261,-0.05038,-16.7726,0.61018,0.61316,0.10076,-3.3891,-1.21323,-1.21306,-0.00404,4.7889
0.1120,B,-0.01133,0.00338,-2.19848,-0.01065,-0.05326,0.01598,-1.31442,-0.54109,11.00615,-0.454276,0.001067,-0.005816,0.890842,79,30.544,10.665,101,14,27,16,0.00000,-0.00403,0.01938,7.0751,0.61018,0.60741,-0.04651,3.0181,-1.21323,-1.21726,0.02629,8.0131,0.00000,-0.00023,-0.00388,-2.9191,0.61018,0.60999,0.04651,0.0495,-1.21323,-1.21360,-0.01415,4.4096,0.00000,-0.00725,-0.07363,11.4786,0.61018,0.61037,0.01938,-0.0247,-1.21323,-1.21197,0.00607,3.2716,0.00000,0.01264,0.02713,-16.5746,0.61018,0.61316,0.00000,-3.5376,-1.21323,-1.21304,0.02426,4.7889
0.1140,B,-0.01131,0.00329,-2.19842,-0.00213,-0.03941,0.02663,-1.13006,-0.34955,10.28549,-0.454302,0.001103,-0.005786,0.890828,79,30.544,10.596,101,14,27,16,0.00000,-0.00403,-0.01938,7.0009,0.61018,0.60747,-0.02713,2.7459,-1.21323,-1.21721,0.03437,8.0131,0.00000,-0.00030,0.01938,-2.9191,0.61018,0.60996,-0.01938,0.0247,-1.21323,-1.21355,0.00202,4.3148,0.00000,-0.00716,-0.03876,11.2312,0.61018,0.61034,-0.03876,-0.0247,-1.21323,-1.21195,0.01820,3.2716,0.00000,0.01249,-0.15115,-16.4757,0.61018,0.61316,-0.04651,-3.4634,-1.21323,-1.21304,0.00809,4.7889
0.1160,B,-0.01132,0.00327,-2.19838,-0.01704,-0.03622,0.02983,-1.13006,-0.34955,10.28549,-0.454317,0.001115,-0.005786,0.890821,79,30.544,10.631,101,14,27,16,0.00000,-0.00403,-0.03876,7.0751,0.61018,0.60753,0.01550,2.7212,-1.21323,-1.21721,0.00809,8.0131,0.00000,-0.00039,-0.10851,-2.8449,0.61018,0.60999,0.04263,0.0247,-1.21323,-1.21352,0.01415,4.4096,0.00000,-0.00707,0.01163,11.0828,0.61018,0.61037,-0.01938,-0.0742,-1.21323,-1.21195,0.01415,3.3191,0.00000,0.01246,-0.16277,-16.4262,0.61018,0.61328,0.05038,-3.5376,-1.21323,-1.21304,-0.00809,4.7889
0.1180,B,-0.01133,0.00322,-2.19832,-0.01278,-0.04368,0.02450,-1.13006,-0.34955,10.28549,-0.454346,0.001142,-0.005779,0.890806,79,30.553,10.357,101,14,26,14,0.00000,-0.00397,0.05038,7.0751,0.61018,0.60747,-0.09689,2.9686,-1.21323,-1.21717,0.05257,7.8235,0.00000,-0.00039,-0.01550,-2.7212,0.61018,0.61002,0.09301,0.0000,-1.21323,-1.21348,0.01820,4.2199,0.00000,-0.00701,-0.01550,11.0580,0.61018,0.61040,0.00775,-0.1237,-1.21323,-1.21192,0.04044,3.3191,0.00000,0.01249,-0.05038,-16.4510,0.61018,0.61328,0.05038,-3.5376,-1.21323,-1.21304,-0.01415,4.6941
0.1200,B,-0.01133,0.00316,-2.19823,-0.00533,-0.05113,0.03835,-0.90860,-0.22984,9.70370,-0.454384,0.001167,-0.005766,0.890787,79,30.562,10.323,101,14,26,14,0.00000,-0.00394,0.06201,7.0009,0.61018,0.60750,-0.06976,2.7707,-1.21323,-1.21709,0.05864,7.6812,0.00000,-0.00045,-0.00775,-2.7212,0.61018,0.60996,-0.01163,-0.0247,-1.21323,-1.21345,0.01011,4.1251,0.00000,-0.00689,0.04651,10.9838,0.61018,0.61040,-0.00388,-0.1237,-1.21323,-1.21190,0.00809,3.2242,0.00000,0.01252,0.08914,-16.6489,0.61018,0.61334,0.05426,-3.6613,-1.21323,-1.21304,-0.02022,4.8363
0.1220,B,-0.01133,0.00311,-2.19814,0.00107,-0.04474,0.03941,-0.90860,-0.22984,9.70370,-0.454426,0.001190,-0.005750,0.890765,79,30.562,10.118,101,14,26,14,0.00000,-0.00397,0.00000,7.0257,0.61018,0.60753,-0.05813,2.8449,-1.21323,-1.21707,0.01415,7.6338,0.00000,-0.00048,-0.00775,-2.6717,0.61018,0.60996,-0.01938,0.0742,-1.21323,-1.21339,0.02831,4.0777,0.00000,-0.00664,0.13952,10.6127,0.61018,0.61040,0.01550,0.0247,-1.21323,-1.21189,0.00607,3.2242,0.00000,0.01237,-0.14339,-16.3273,0.61018,0.61328,-0.03488,-3.3644,-1.21323,-1.21299,-0.03033,4.6941
0.1240,B,-0.01129,0.00301,-2.19795,-0.00959,-0.01917,0.04794,-0.72903,-0.27414,9.21289,-0.454508,0.001227,-0.005714,0.890723,79,30.571,9.879,101,14,26,14,0.00000,-0.00391,0.05426,7.1741,0.61018,0.60756,-0.05426,2.8449,-1.21323,-1.21696,0.05662,7.5864,0.00000,-0.00066,-0.01550,-2.4491,0.61018,0.60996,0.02325,0.0247,-1.21323,-1.21333,0.00607,4.1251,0.00000,-0.00652,-0.00388,10.5385,0.61018,0.61043,0.03876,-0.1732,-1.21323,-1.21181,0.01820,3.0820,0.00000,0.01221,-0.17052,-16.1788,0.61018,0.61334,0.03876,-3.5376,-1.21323,-1.21298,0.01618,4.6941
0.1260,B,-0.01127,0.00299,-2.19786,0.00639,-0.02237,0.04368,-0.72903,-0.27414,9.21289,-0.454550,0.001231,-0.005699,0.890702,79,30.580,9.810,101,14,26,14,0.00000,-0.00391,0.01938,6.9267,0.61018,0.60759,-0.04263,2.8449,-1.21323,-1.21690,0.03235,7.5864,0.00000,-0.00072,-0.06201,-2.5233,0.61018,0.60996,0.00388,0.0495,-1.21323,-1.21331,0.00000,4.0777,0.00000,-0.00637,0.10076,10.2911,0.61018,0.61040,-0.06201,-0.1484,-1.21323,-1.21179,0.02022,3.0820,0.00000,0.01221,-0.09301,-16.3273,0.61018,0.61331,-0.03876,-3.4881,-1.21323,-1.21296,0.02831,4.6467
0.1300,B,-0.01126,0.00296,-2.19775,-0.00107,-0.01917,0.05646,-0.87388,-0.15802,8.41801,-0.454600,0.001240,-0.005687,0.890677,79,30.580,9.673,101,15,26,14,0.00000,-0.00394,-0.03488,7.0751,0.61018,0.60762,0.00000,2.7212,-1.21323,-1.21685,0.03842,7.4916,0.00000,-0.00075,-0.03100,-2.3254,0.61018,0.60999,0.05813,0.0247,-1.21323,-1.21323,0.02831,3.9829,0.00000,-0.00631,-0.04651,10.3406,0.61018,0.61043,0.00000,-0.1484,-1.21323,-1.21179,-0.01618,3.0820,0.00000,0.01212,-0.18215,-16.2778,0.61018,0.61331,-0.01938,-3.4634,-1.21323,-1.21295,0.01618,4.6467
0.1320,B,-0.01124,0.00297,-2.19762,0.00213,-0.00639,0.05752,-0.87388,-0.15802,8.41801,-0.454655,0.001232,-0.005682,0.890648,79,30.580,9.673,101,15,26,13,0.00000,-0.00391,0.01163,6.9020,0.61018,0.60762,0.00000,2.8449,-1.21323,-1.21683,0.00404,7.4442,0.00000,-0.00075,0.03100,-2.3996,0.61018,0.60999,0.03876,0.0000,-1.21323,-1.21323,-0.01618,4.0303,0.00000,-0.00622,-0.00388,10.1922,0.61018,0.61043,-0.00388,-0.0495,-1.21323,-1.21173,0.04246,3.0346,0.00000,0.01209,-0.17052,-16.2531,0.61018,0.61331,-0.02713,-3.4634,-1.21323,-1.21293,-0.01213,4.5993
0.1340,B,-0.01123,0.00301,-2.19745,0.00107,0.00852,0.06179,-0.77333,-0.09816,8.17979,-0.454733,0.001210,-0.005685,0.890609,79,30.580,9.673,101,15,26,13,0.00000,-0.00391,0.03876,6.9762,0.61018,0.60765,0.05426,2.8449,-1.21323,-1.21679,0.02831,7.4916,0.00000,-0.00084,-0.01938,-2.2512,0.61018,0.60996,0.00000,0.0495,-1.21323,-1.21320,0.00809,4.0303,0.00000,-0.00616,-0.02713,10.2169,0.61018,0.61046,0.01938,-0.0742,-1.21323,-1.21170,0.05055,3.0346,0.00000,0.01215,0.00000,-16.3273,0.61018,0.61331,0.01938,-3.4881,-1.21323,-1.21292,-0.00202,4.5993
0.1360,B,-0.01123,0.00304,-2.19738,-0.00959,0.00959,0.06605,-0.77333,-0.09816,8.17979,-0.454764,0.001200,-0.005690,0.890593,79,30.580,9.673,101,15,26,13,0.00000,-0.00391,0.03100,6.9020,0.61018,0.60762,-0.01550,2.8449,-1.21323,-1.21675,0.04044,7.4442,0.00000,-0.00084,-0.01938,-2.2512,0.61018,0.60999,0.06201,0.1237,-1.21323,-1.21317,0.01213,3.8880,0.00000,-0.00607,0.02713,10.0437,0.61018,0.61046,0.01938,-0.0742,-1.21323,-1.21168,0.00809,3.0346,0.00000,0.01215,0.05813,-16.2531,0.61018,0.61328,-0.00388,-3.3644,-1.21323,-1.21288,0.01820,4.5044
0.1380,B,-0.01123,0.00312,-2.19726,-0.00959,0.03409,0.05113,-0.77333,-0.09816,8.17979,-0.454816,0.001165,-0.005710,0.890566,79,30.580,9.605,101,15,26,13,0.00000,-0.00394,-0.01550,7.1246,0.61018,0.60765,0.01550,2.7707,-1.21323,-1.21674,0.01820,7.4442,0.00000,-0.00090,0.01163,-2.1275,0.61018,0.60999,0.05038,0.0000,-1.21323,-1.21317,-0.01213,4.0303,0.00000,-0.00604,-0.03488,10.1427,0.61018,0.61046,0.00388,-0.1732,-1.21323,-1.21165,0.00809,2.8923,0.00000,0.01215,0.08914,-16.4262,0.61018,0.61325,-0.03876,-3.4634,-1.21323,-1.21287,0.01415,4.6467
0.1400,B,-0.01123,0.00316,-2.19716,-0.01278,0.00213,0.04048,-0.60334,-0.01796,7.95833,-0.454862,0.001146,-0.005720,0.890543,79,30.589,9.605,101,15,26,13,0.00000,-0.00391,0.03100,7.0999,0.61018,0.60762,-0.05426,2.7707,-1.21323,-1.21674,0.00000,7.4442,0.00000,-0.00090,0.03488,-2.2264,0.61018,0.60996,0.00000,0.0742,-1.21323,-1.21317,-0.02022,3.9829,0.00000,-0.00595,0.03876,9.9448,0.61018,0.61043,-0.02713,-0.0742,-1.21323,-1.21164,-0.00607,2.9871,0.00000,0.01200,-0.16277,-16.0551,0.61018,0.61322,-0.01163,-3.3397,-1.21323,-1.21287,-0.03235,4.5044
0.1420,B,-0.01125,0.00323,-2.19703,-0.01491,0.02876,0.05433,-0.60334,-0.01796,7.95833,-0.454917,0.001121,-0.005744,0.890514,79,30.589,9.605,101,15,26,13,0.00000,-0.00397,-0.00388,7.0999,0.61018,0.60762,-0.05813,2.8202,-1.21323,-1.21671,0.02629,7.3967,0.00000,-0.00093,0.02325,-2.1275,0.61018,0.60996,0.03100,0.0742,-1.21323,-1.21315,0.00809,4.0777,0.00000,-0.00592,0.01550,10.0190,0.61018,0.61043,-0.03876,-0.1237,-1.21323,-1.21162,-0.00809,2.9871,0.00000,0.01206,0.00000,-16.1294,0.61018,0.61322,-0.00775,-3.2902,-1.21323,-1.21284,-0.00404,4.5044
0.1440,B,-0.01132,0.00341,-2.19682,-0.01704,0.02983,0.04687,-0.58897,-0.05746,7.95474,-0.455014,0.001058,-0.005817,0.890465,79,30.580,9.537,101,15,26,13,0.00000,-0.00397,0.05813,7.1741,0.61018,0.60765,0.05426,2.7212,-1.21323,-1.21672,0.03842,7.4442,0.00000,-0.00096,0.00000,-2.3254,0.61018,0.60989,-0.05426,0.1237,-1.21323,-1.21318,-0.03842,4.0777,0.00000,-0.00580,0.03876,10.0437,0.61018,0.61043,-0.01550,-0.0742,-1.21323,-1.21157,0.02426,2.8923,0.00000,0.01200,-0.13564,-16.4757,0.61018,0.61316,0.05426,-3.1665,-1.21323,-1.21282,-0.00607,4.5044
0.1480,B,-0.01137,0.00350,-2.19671,-0.03302,0.04474,0.04687,-0.58897,-0.05746,7.95474,-0.455060,0.001027,-0.005857,0.890441,79,30.571,9.639,101,15,26,13,0.00000,-0.00406,-0.03100,7.3225,0.61018,0.60765,-0.00388,2.7707,-1.21323,-1.21671,0.02224,7.4442,0.00000,-0.00102,-0.01938,-2.3254,0.61018,0.60992,0.03488,0.1237,-1.21323,-1.21315,0.00404,3.8880,0.00000,-0.00573,0.07751,9.8706,0.61018,0.61040,-0.05426,-0.0247,-1.21323,-1.21159,-0.01011,2.9871,0.00000,0.01212,0.12014,-16.2531,0.61018,0.61310,0.03488,-3.1665,-1.21323,-1.21282,-0.01011,4.5044
0.1500,B,-0.01140,0.00358,-2.19664,-0.02344,0.02344,0.03515,-0.73263,-0.02634,7.99424,-0.455094,0.001003,-0.005891,0.890423,79,30.580,9.571,101,15,26,13,0.00000,-0.00406,-0.03488,7.0751,0.61018,0.60762,-0.06588,2.7212,-1.21323,-1.21672,0.00202,7.4442,0.00000,-0.00096,0.05813,-2.2264,0.61018,0.60992,-0.00388,0.1484,-1.21323,-1.21317,-0.02022,4.0777,0.00000,-0.00573,0.01938,9.9943,0.61018,0.61043,-0.01163,-0.1484,-1.21323,-1.21157,0.00000,2.9871,0.00000,0.01206,-0.02713,-16.1541,0.61018,0.61304,-0.06976,-3.2407,-1.21323,-1.21281,-0.01415,4.5044
0.1520,B,-0.01144,0.00368,-2.19655,-0.04048,0.04474,0.04261,-0.73263,-0.02634,7.99424,-0.455134,0.000964,-0.005929,0.890403,79,30.589,9.639,101,15,26,13,0.00000,-0.00413,-0.08139,7.3225,0.61018,0.60768,0.05426,2.8202,-1.21323,-1.21672,0.00809,7.4916,0.00000,-0.00099,0.00000,-2.2264,0.61018,0.60986,-0.01938,0.2226,-1.21323,-1.21318,-0.03640,3.9829,0.00000,-0.00567,0.03876,9.7221,0.61018,0.61043,0.03100,0.0247,-1.21323,-1.21157,0.01213,2.9871,0.00000,0.01200,-0.14727,-16.3273,0.61018,0.61304,0.03876,-3.1170,-1.21323,-1.21282,-0.01618,4.5993
0.1540,B,-0.01148,0.00378,-2.19648,-0.02770,0.03089,0.02770,-0.84515,-0.10295,8.24204,-0.455167,0.000928,-0.005970,0.890386,79,30.580,9.605,101,15,26,14,0.00000,-0.00409,0.00775,7.3473,0.61018,0.60765,0.00000,2.8202,-1.21323,-1.21672,0.00607,7.4442,0.00000,-0.00096,0.05813,-2.1522,0.61018,0.60986,-0.01938,0.0742,-1.21323,-1.21318,-0.00607,4.0777,0.00000,-0.00570,-0.02713,10.0932,0.61018,0.61043,-0.01938,-0.0742,-1.21323,-1.21157,0.00000,2.9871,0.00000,0.01203,-0.10076,-16.0304,0.61018,0.61298,-0.01550,-2.8202,-1.21323,-1.21282,-0.01618,4.6467
0.1560,B,-0.01151,0.00384,-2.19641,-0.03515,0.01917,0.02024,-0.84515,-0.10295,8.24204,-0.455199,0.000910,-0.005997,0.890369,79,30.580,9.639,101,15,26,14,0.00000,-0.00416,0.02713,7.5947,0.61018,0.60768,0.04651,2.6470,-1.21323,-1.21671,0.04448,7.4442,0.00000,-0.00096,0.00775,-2.2264,0.61018,0.60992,0.07363,0.1237,-1.21323,-1.21318,0.00607,4.0777,0.00000,-0.00573,-0.03100,9.9448,0.61018,0.61040,-0.02713,-0.0247,-1.21323,-1.21157,0.01213,3.0820,0.00000,0.01206,-0.09689,-16.5499,0.61018,0.61307,0.15890,-3.2407,-1.21323,-1.21282,-0.01618,4.6467
0.1580,B,-0.01157,0.00396,-2.19626,-0.02770,0.03196,0.02450,-0.79248,-0.19513,8.79031,-0.455263,0.000871,-0.006054,0.890336,79,30.580,9.708,101,16,26,15,0.00000,-0.00425,-0.05813,7.4957,0.61018,0.60765,-0.05426,2.7707,-1.21323,-1.21672,0.04044,7.4442,0.00000,-0.00090,0.04651,-2.4986,0.61018,0.60986,-0.01163,0.1237,-1.21323,-1.21322,0.00000,4.1251,0.00000,-0.00573,-0.07751,10.0437,0.61018,0.61040,-0.03876,-0.0495,-1.21323,-1.21157,0.02022,2.9871,0.00000,0.01218,0.00388,-16.4757,0.61018,0.61289,0.00000,-2.6717,-1.21323,-1.21282,-0.00404,4.5044
0.1620,B,-0.01158,0.00402,-2.19621,-0.01491,0.01065,0.02450,-0.79248,-0.19513,8.79031,-0.455285,0.000845,-0.006070,0.890325,79,30.580,9.810,101,16,26,15,0.00000,-0.00425,0.03100,7.5452,0.61018,0.60765,-0.08139,2.7212,-1.21323,-1.21675,0.00000,7.5864,0.00000,-0.00093,0.07363,-2.2512,0.61018,0.60983,-0.05426,0.0742,-1.21323,-1.21325,-0.02629,4.2199,0.00000,-0.00570,-0.02713,9.9201,0.61018,0.61037,-0.05813,-0.0495,-1.21323,-1.21157,0.02022,2.9871,0.00000,0.01212,-0.13564,-16.2531,0.61018,0.61295,0.09301,-3.0428,-1.21323,-1.21284,-0.02831,4.5044
0.1640,B,-0.01159,0.00407,-2.19616,-0.00746,0.00533,0.02024,-0.83199,-0.18076,9.44153,-0.455307,0.000826,-0.006085,0.890313,79,30.580,9.742,101,16,26,15,0.00000,-0.00431,0.03876,7.5204,0.61018,0.60768,-0.00388,2.7707,-1.21323,-1.21677,-0.01011,7.4916,0.00000,-0.00093,-0.03488,-2.4244,0.61018,0.60983,-0.04263,0.1237,-1.21323,-1.21326,0.00404,4.2199,0.00000,-0.00570,-0.05038,10.0437,0.61018,0.61040,0.01938,-0.0495,-1.21323,-1.21159,-0.01011,2.9871,0.00000,0.01218,-0.04651,-16.3767,0.61018,0.61283,-0.05426,-2.7212,-1.21323,-1.21282,0.02022,4.5993
0.1660,B,-0.01160,0.00410,-2.19614,-0.01598,0.01065,0.00533,-0.83199,-0.18076,9.44153,-0.455319,0.000816,-0.006095,0.890307,79,30.571,9.947,101,16,28,16,0.00000,-0.00434,0.00775,7.5452,0.61018,0.60768,-0.02713,2.7459,-1.21323,-1.21675,0.00404,7.4916,0.00000,-0.00087,0.05426,-2.4491,0.61018,0.60989,0.04263,0.0495,-1.21323,-1.21330,-0.01213,4.3148,0.00000,-0.00573,-0.01938,9.8953,0.61018,0.61040,0.00000,-0.1484,-1.21323,-1.21159,0.00000,3.0346,0.00000,0.01215,-0.14339,-16.4510,0.61018,0.61289,0.05426,-3.1418,-1.21323,-1.21284,-0.01011,4.5993
0.1680,B,-0.01161,0.00412,-2.19611,-0.01491,0.00852,0.01065,-0.83199,-0.18076,9.44153,-0.455333,0.000810,-0.006107,0.890300,79,30.571,9.981,101,16,28,16,0.00000,-0.00440,-0.02713,7.7183,0.61018,0.60771,0.03100,2.8696,-1.21323,-1.21674,0.04853,7.5864,0.00000,-0.00087,0.03488,-2.5975,0.61018,0.60986,-0.00388,0.1484,-1.21323,-1.21331,-0.02022,4.2199,0.00000,-0.00573,0.06201,10.1180,0.61018,0.61040,0.01938,-0.0495,-1.21323,-1.21157,0.02831,3.0346,0.00000,0.01224,-0.01550,-16.4262,0.61018,0.61283,-0.02325,-2.7707,-1.21323,-1.21284,-0.00404,4.5993
0.1700,B,-0.01162,0.00414,-2.19608,-0.02450,0.00107,0.01278,-0.83677,-0.15203,9.87608,-0.455343,0.000804,-0.006115,0.890295,79,30.571,9.810,101,16,28,16,0.00000,-0.00440,-0.00388,7.5452,0.61018,0.60771,0.03876,2.8696,-1.21323,-1.21675,0.02426,7.5864,0.00000,-0.00090,-0.03876,-2.2512,0.61018,0.60986,0.02713,0.2226,-1.21323,-1.21331,-0.00607,4.2199,0.00000,-0.00573,0.06201,10.0437,0.61018,0.61040,0.01938,-0.0495,-1.21323,-1.21157,0.03033,2.9871,0.00000,0.01227,0.00775,-16.1788,0.61018,0.61289,0.12402,-3.0181,-1.21323,-1.21284,0.00809,4.5044
0.1720,B,-0.01162,0.00416,-2.19607,-0.00426,-0.00746,0.00320,-0.83677,-0.15203,9.87608,-0.455348,0.000796,-0.006120,0.890292,79,30.562,9.879,101,16,28,17,0.00000,-0.00440,0.04651,7.6441,0.61018,0.60771,-0.01938,2.8449,-1.21323,-1.21675,0.04448,7.6338,0.00000,-0.00084,0.09689,-2.3501,0.61018,0.60983,-0.01938,0.2226,-1.21323,-1.21333,-0.00404,4.2674,0.00000,-0.00583,-0.05038,10.2169,0.61018,0.61037,-0.03876,-0.0495,-1.21323,-1.21159,0.02629,2.9871,0.00000,0.01221,-0.13952,-16.5499,0.61018,0.61280,-0.06201,-2.7212,-1.21323,-1.21285,-0.04044,4.5993
0.1740,B,-0.01164,0.00416,-2.19606,-0.02450,-0.00639,0.00533,-0.90980,-0.20710,10.28070,-0.455353,0.000798,-0.006129,0.890290,79,30.571,10.015,101,16,28,17,0.00000,-0.00443,0.01163,7.5452,0.61018,0.60765,-0.08139,2.8202,-1.21323,-1.21679,-0.01011,7.5864,0.00000,-0.00087,-0.05813,-2.4491,0.61018,0.60986,0.00388,0.1484,-1.21323,-1.21334,-0.02022,4.2199,0.00000,-0.00583,-0.03876,10.0437,0.61018,0.61037,-0.03100,0.0000,-1.21323,-1.21159,0.03235,3.0346,0.00000,0.01234,0.05038,-16.7478,0.61018,0.61280,-0.08139,-2.8202,-1.21323,-1.21287,-0.00809,4.5993
0.1760,B,-0.01164,0.00416,-2.19607,0.00959,-0.01385,-0.01065,-0.90980,-0.20710,10.28070,-0.455350,0.000799,-0.006127,0.890291,79,30.571,9.913,101,16,28,17,0.00000,-0.00449,-0.05813,7.6441,0.61018,0.60765,-0.06201,2.8202,-1.21323,-1.21679,0.00404,7.5864,0.00000,-0.00090,-0.03100,-2.2017,0.61018,0.60986,0.03100,0.1484,-1.21323,-1.21337,-0.04246,4.2674,0.00000,-0.00583,0.02713,10.2169,0.61018,0.61037,-0.00388,-0.0247,-1.21323,-1.21160,0.03842,3.0820,0.00000,0.01224,-0.13177,-16.5252,0.61018,0.61280,0.05038,-2.8696,-1.21323,-1.21288,-0.02022,4.6467
0.1780,B,-0.01169,0.00418,-2.19607,-0.03941,0.00107,-0.00639,-0.90980,-0.20710,10.28070,-0.455348,0.000802,-0.006154,0.890292,79,30.571,10.049,101,15,29,17,0.00000,-0.00449,0.00000,7.7183,0.61018,0.60765,-0.03100,2.8449,-1.21323,-1.21680,-0.01011,7.6338,0.00000,-0.00084,0.00000,-2.2264,0.61018,0.60983,-0.01938,0.1237,-1.21323,-1.21339,-0.04246,4.2199,0.00000,-0.00589,-0.06201,10.1427,0.61018,0.61031,-0.03488,-0.0247,-1.21323,-1.21160,0.02426,3.0346,0.00000,0.01231,-0.03100,-16.4757,0.61018,0.61280,0.01163,-2.9191,-1.21323,-1.21288,-0.01415,4.5993
0.1800,B,-0.01170,0.00418,-2.19606,-0.00639,-0.01491,0.00000,-0.91219,-0.22745,10.57040,-0.455353,0.000804,-0.006157,0.890289,79,30.562,10.015,101,15,29,17,0.00000,-0.00449,0.01550,7.5947,0.61018,0.60762,-0.07751,2.9191,-1.21323,-1.21680,-0.00202,7.4916,0.00000,-0.00078,0.13564,-2.5233,0.61018,0.60983,-0.01550,0.1237,-1.21323,-1.21337,-0.01820,4.2674,0.00000,-0.00586,0.01550,10.0437,0.61018,0.61034,-0.03876,-0.0247,-1.21323,-1.21162,0.00607,3.0346,0.00000,0.01231,-0.04263,-16.6489,0.61018,0.61274,-0.01163,-2.6717,-1.21323,-1.21290,-0.02629,4.6467
0.1820,B,-0.01173,0.00420,-2.19608,-0.02663,0.00639,-0.00852,-0.91219,-0.22745,10.57040,-0.455345,0.000801,-0.006177,0.890294,79,30.562,9.947,101,15,29,17,0.00000,-0.00452,-0.04263,7.7431,0.61018,0.60762,0.04651,3.0675,-1.21323,-1.21680,-0.00202,7.6338,0.00000,-0.00084,-0.01938,-2.3501,0.61018,0.60983,0.05813,0.1484,-1.21323,-1.21337,-0.00202,4.2674,0.00000,-0.00589,-0.03488,9.9448,0.61018,0.61034,-0.02713,-0.0495,-1.21323,-1.21162,0.00809,2.9871,0.00000,0.01227,-0.11239,-16.5499,0.61018,0.61274,0.06976,-2.4986,-1.21323,-1.21288,0.01011,4.6467
0.1840,B,-0.01175,0.00417,-2.19613,-0.03622,-0.01172,-0.01917,-0.76495,-0.16879,10.55963,-0.455323,0.000818,-0.006180,0.890304,79,30.562,10.049,101,15,29,17,0.00000,-0.00449,0.00388,7.5947,0.61018,0.60759,0.00775,2.9439,-1.21323,-1.21682,-0.01820,7.4442,0.00000,-0.00084,0.01550,-2.4491,0.61018,0.60980,0.01938,0.2474,-1.21323,-1.21337,0.00809,4.3148,0.00000,-0.00592,-0.02713,10.1922,0.61018,0.61034,-0.03876,0.0000,-1.21323,-1.21164,-0.01820,2.9871,0.00000,0.01240,0.10464,-16.4510,0.61018,0.61270,-0.00388,-2.9439,-1.21323,-1.21290,-0.01618,4.6467
0.1860,B,-0.01175,0.00418,-2.19614,-0.01172,0.00000,-0.01917,-0.76495,-0.16879,10.55963,-0.455316,0.000815,-0.006183,0.890308,79,30.571,9.913,101,15,29,17,0.00000,-0.00449,-0.01550,7.6194,0.61018,0.60753,-0.03100,3.0428,-1.21323,-1.21679,0.03033,7.4916,0.00000,-0.00081,0.04651,-2.4986,0.61018,0.60974,-0.04263,0.2474,-1.21323,-1.21339,-0.02426,4.3148,0.00000,-0.00592,-0.02713,10.1922,0.61018,0.61037,0.03100,0.0495,-1.21323,-1.21164,-0.01415,2.9871,0.00000,0.01227,-0.08914,-16.5499,0.61018,0.61264,-0.08526,-2.5975,-1.21323,-1.21292,-0.03235,4.5993
0.1880,B,-0.01176,0.00419,-2.19618,-0.02450,0.00107,-0.02344,-0.76495,-0.16879,10.55963,-0.455299,0.000813,-0.006189,0.890317,79,30.562,10.015,101,15,29,17,0.00000,-0.00449,-0.05813,7.5452,0.61018,0.60747,-0.02325,3.1170,-1.21323,-1.21682,-0.02426,7.6338,0.00000,-0.00084,0.01550,-2.3996,0.61018,0.60974,0.00388,0.3216,-1.21323,-1.21336,0.02629,4.2674,0.00000,-0.00589,-0.08526,10.4148,0.61018,0.61034,-0.02713,0.0247,-1.21323,-1.21162,0.01213,2.9871,0.00000,0.01240,0.13177,-16.3273,0.61018,0.61267,0.02713,-2.7212,-1.21323,-1.21292,0.00000,4.5993
0.1900,B,-0.01178,0.00419,-2.19622,0.00426,-0.00746,-0.02876,-0.80685,-0.27054,10.45548,-0.455282,0.000817,-0.006196,0.890325,79,30.562,9.913,101,15,29,17,0.00000,-0.00440,0.10076,7.3967,0.61018,0.60738,-0.08139,3.2902,-1.21323,-1.21680,-0.00607,7.4916,0.00000,-0.00081,0.05813,-2.3996,0.61018,0.60974,0.02713,0.4206,-1.21323,-1.21339,-0.02426,4.2674,0.00000,-0.00595,-0.03876,10.2169,0.61018,0.61034,-0.03876,0.0000,-1.21323,-1.21162,0.00809,2.9871,0.00000,0.01221,-0.21315,-16.1541,0.61018,0.61261,-0.04651,-2.5480,-1.21323,-1.21292,-0.01820,4.6941
0.1920,B,-0.01177,0.00417,-2.19624,-0.01278,-0.01598,-0.01598,-0.80685,-0.27054,10.45548,-0.455273,0.000824,-0.006191,0.890330,79,30.571,10.015,101,15,29,17,0.00000,-0.00443,-0.00775,7.4957,0.61018,0.60735,-0.06201,3.2655,-1.21323,-1.21679,0.02022,7.4442,0.00000,-0.00087,-0.01938,-2.4491,0.61018,0.60971,-0.01550,0.2721,-1.21323,-1.21336,0.02426,4.2199,0.00000,-0.00592,0.00000,10.1427,0.61018,0.61034,-0.03876,0.0000,-1.21323,-1.21162,0.01820,2.9871,0.00000,0.01237,0.08139,-16.5746,0.61018,0.61261,0.00775,-2.6223,-1.21323,-1.21292,-0.01820,4.5993
0.1940,B,-0.01179,0.00412,-2.19629,-0.00639,-0.03622,-0.03622,-0.68354,-0.24181,10.09994,-0.455249,0.000849,-0.006184,0.890342,79,30.571,10.049,101,15,29,17,0.00000,-0.00440,0.02713,7.4215,0.61018,0.60726,-0.03876,3.3644,-1.21323,-1.21679,0.02224,7.4916,0.00000,-0.00087,-0.01163,-2.3501,0.61018,0.60965,-0.00775,0.5195,-1.21323,-1.21339,-0.03640,4.3148,0.00000,-0.00598,-0.07363,10.1427,0.61018,0.61034,-0.03100,0.0495,-1.21323,-1.21160,0.02629,2.9871,0.00000,0.01234,0.05426,-16.5252,0.61018,0.61261,0.02325,-2.6223,-1.21323,-1.21292,-0.01820,4.5993
0.1960,B,-0.01178,0.00409,-2.19635,-0.01065,-0.02770,-0.03302,-0.68354,-0.24181,10.09994,-0.455222,0.000862,-0.006176,0.890356,79,30.571,9.981,101,15,29,16,0.00000,-0.00434,0.11239,7.5452,0.61018,0.60720,-0.09689,3.3644,-1.21323,-1.21679,0.02022,7.5864,0.00000,-0.00087,-0.01163,-2.4986,0.61018,0.60965,-0.01550,0.3216,-1.21323,-1.21341,-0.01618,4.2199,0.00000,-0.00592,0.02325,10.2169,0.61018,0.61034,0.00000,-0.0247,-1.21323,-1.21162,0.00202,3.0820,0.00000,0.01234,0.06201,-16.5746,0.61018,0.61258,0.00000,-2.4244,-1.21323,-1.21292,-0.02022,4.5993
0.1980,B,-0.01180,0.00409,-2.19641,-0.00959,-0.01917,-0.03622,-0.68354,-0.24181,10.09994,-0.455197,0.000865,-0.006182,0.890369,79,30.571,9.947,101,15,29,16,0.00000,-0.00431,0.11627,7.5204,0.61018,0.60714,-0.08139,3.5376,-1.21323,-1.21679,0.02224,7.4916,0.00000,-0.00090,-0.04651,-2.3501,0.61018,0.60962,-0.03488,0.5195,-1.21323,-1.21339,0.03640,4.2199,0.00000,-0.00595,0.00775,10.3406,0.61018,0.61034,0.00388,0.0000,-1.21323,-1.21164,-0.02426,3.0820,0.00000,0.01234,0.08914,-16.4262,0.61018,0.61252,0.00000,-2.4986,-1.21323,-1.21292,-0.02022,4.6467
0.2000,B,-0.01181,0.00405,-2.19646,-0.01172,-0.02663,-0.02237,-0.60932,-0.26456,9.61033,-0.455176,0.000886,-0.006182,0.890379,79,30.562,9.844,101,15,29,16,0.00000,-0.00434,-0.00775,7.3967,0.61018,0.60705,-0.07363,3.6613,-1.21323,-1.21679,-0.01011,7.4916,0.00000,-0.00087,0.01938,-2.3254,0.61018,0.60959,0.01550,0.5195,-1.21323,-1.21334,0.01618,4.2199,0.00000,-0.00595,-0.02325,10.2911,0.61018,0.61034,0.01938,0.0247,-1.21323,-1.21160,0.00404,3.0346,0.00000,0.01221,-0.13177,-16.4510,0.61018,0.61249,-0.05426,-2.5480,-1.21323,-1.21292,-0.02022,4.5993
0.2020,B,-0.01182,0.00401,-2.19651,-0.01704,-0.02344,-0.02663,-0.60932,-0.26456,9.61033,-0.455155,0.000905,-0.006174,0.890391,79,30.571,9.981,101,15,28,16,0.00000,-0.00431,-0.02325,7.2731,0.61018,0.60702,-0.03100,3.6613,-1.21323,-1.21679,-0.00607,7.4916,0.00000,-0.00090,0.01163,-2.2264,0.61018,0.60959,0.04651,0.5937,-1.21323,-1.21337,-0.02831,4.3148,0.00000,-0.00598,-0.02325,10.2911,0.61018,0.61034,0.01938,0.0247,-1.21323,-1.21159,0.01618,2.9871,0.00000,0.01218,-0.16665,-16.4510,0.61018,0.61246,0.00775,-2.5975,-1.21323,-1.21292,-0.02022,4.6941
0.2040,B,-0.01184,0.00398,-2.19656,-0.00959,-0.02344,-0.03515,-0.45370,-0.34955,9.30507,-0.455129,0.000925,-0.006176,0.890404,79,30.571,9.879,101,15,28,16,0.00000,-0.00428,-0.01550,7.2978,0.61018,0.60699,-0.01938,3.6860,-1.21323,-1.21677,0.02629,7.6338,0.00000,-0.00087,0.05426,-2.3254,0.61018,0.60953,-0.03488,0.5937,-1.21323,-1.21334,0.01213,4.2199,0.00000,-0.00595,0.01550,10.2416,0.61018,0.61031,-0.03876,0.0247,-1.21323,-1.21162,0.00202,3.0820,0.00000,0.01227,0.00000,-16.6241,0.61018,0.61243,-0.01938,-2.3996,-1.21323,-1.21292,-0.01820,4.5044
0.2060,B,-0.01184,0.00395,-2.19663,-0.01172,-0.01278,-0.03728,-0.45370,-0.34955,9.30507,-0.455101,0.000935,-0.006171,0.890418,79,30.571,9.981,101,15,28,16,0.00000,-0.00425,0.00000,7.2978,0.61018,0.60693,-0.03876,3.7602,-1.21323,-1.21675,0.04853,7.5864,0.00000,-0.00093,-0.01163,-2.3501,0.61018,0.60950,-0.03876,0.6679,-1.21323,-1.21334,0.00000,4.1251,0.00000,-0.00598,-0.01163,10.3406,0.61018,0.61034,0.01550,0.0495,-1.21323,-1.21160,0.02831,2.9871,0.00000,0.01221,-0.06201,-16.4510,0.61018,0.61240,0.00388,-2.3501,-1.21323,-1.21292,-0.01011,4.5993
0.2080,B,-0.01185,0.00392,-2.19669,-0.00426,-0.02557,-0.03622,-0.45370,-0.34955,9.30507,-0.455073,0.000952,-0.006165,0.890432,79,30.571,10.049,101,15,28,15,0.00000,-0.00422,0.01550,7.3473,0.61018,0.60681,-0.01550,4.0571,-1.21323,-1.21677,0.01011,7.5864,0.00000,-0.00090,0.01550,-2.4491,0.61018,0.60950,0.00000,0.7421,-1.21323,-1.21334,0.00000,4.0777,0.00000,-0.00598,-0.00775,10.1180,0.61018,0.61034,0.03488,-0.0495,-1.21323,-1.21164,-0.03842,2.9871,0.00000,0.01218,-0.10076,-16.3767,0.61018,0.61240,0.02713,-2.3501,-1.21323,-1.21292,-0.02022,4.6467
0.2100,B,-0.01185,0.00386,-2.19676,-0.01811,-0.03196,-0.04900,-0.35195,-0.24900,8.90763,-0.455041,0.000976,-0.006153,0.890449,79,30.571,9.947,101,15,28,15,0.00000,-0.00419,0.04263,7.1246,0.61018,0.60678,-0.04651,3.9581,-1.21323,-1.21677,0.00607,7.6338,0.00000,-0.00096,-0.00775,-2.0285,0.61018,0.60947,0.02713,0.5937,-1.21323,-1.21334,0.00000,4.1251,0.00000,-0.00604,-0.10464,10.3159,0.61018,0.61031,0.00388,0.1732,-1.21323,-1.21162,-0.00809,3.0346,0.00000,0.01224,0.08914,-16.2531,0.61018,0.61234,-0.01163,-2.3996,-1.21323,-1.21292,-0.02426,4.5993
0.2120,B,-0.01185,0.00381,-2.19682,-0.00533,-0.03728,-0.03728,-0.35195,-0.24900,8.90763,-0.455014,0.000999,-0.006146,0.890462,79,30.571,9.742,101,15,28,15,0.00000,-0.00416,0.01550,7.2236,0.61018,0.60672,-0.08139,3.9829,-1.21323,-1.21679,-0.02629,7.4916,0.00000,-0.00093,0.00000,-2.2512,0.61018,0.60944,0.01550,0.7669,-1.21323,-1.21334,-0.02022,4.2199,0.00000,-0.00601,-0.03100,10.3159,0.61018,0.61031,0.00000,0.0247,-1.21323,-1.21162,0.00000,3.0346,0.00000,0.01221,0.02325,-16.5746,0.61018,0.61228,-0.05813,-2.3501,-1.21323,-1.21292,0.01820,4.6941
0.2140,B,-0.01187,0.00379,-2.19688,-0.02131,-0.02131,-0.03622,-0.37709,-0.28970,8.70173,-0.454986,0.001016,-0.006148,0.890477,79,30.562,9.913,101,15,28,15,0.00000,-0.00416,-0.01550,7.1988,0.61018,0.60662,-0.11239,4.0076,-1.21323,-1.21679,-0.02224,7.6338,0.00000,-0.00096,-0.01550,-2.2512,0.61018,0.60941,0.00000,0.6432,-1.21323,-1.21333,0.00607,4.2199,0.00000,-0.00604,-0.03876,10.3901,0.61018,0.61031,-0.01163,0.0495,-1.21323,-1.21160,0.02022,2.8923,0.00000,0.01224,0.11239,-16.3767,0.61018,0.61231,0.01938,-2.4244,-1.21323,-1.21292,-0.01415,4.6467
0.2160,B,-0.01188,0.00375,-2.19695,-0.00639,-0.02344,-0.03728,-0.37709,-0.28970,8.70173,-0.454957,0.001035,-0.006144,0.890492,79,30.571,9.879,101,15,28,15,0.00000,-0.00413,0.00775,7.1988,0.61018,0.60659,-0.06201,4.0076,-1.21323,-1.21677,-0.01213,7.5864,0.00000,-0.00093,0.03876,-2.3996,0.61018,0.60941,0.06201,0.7421,-1.21323,-1.21331,0.02224,4.1251,0.00000,-0.00601,0.00388,10.1427,0.61018,0.61028,-0.08139,-0.0742,-1.21323,-1.21162,-0.00202,3.0346,0.00000,0.01221,0.02325,-16.4510,0.61018,0.61228,0.04651,-2.3007,-1.21323,-1.21292,-0.02022,4.6941
0.2180,B,-0.01190,0.00368,-2.19704,-0.01278,-0.03835,-0.05752,-0.37709,-0.28970,8.70173,-0.454913,0.001068,-0.006136,0.890514,79,30.562,10.015,101,15,28,15,0.00000,-0.00409,0.04651,7.2236,0.61018,0.60653,-0.08914,4.0818,-1.21323,-1.21677,0.01011,7.4916,0.00000,-0.00099,-0.00388,-2.2264,0.61018,0.60938,0.03100,0.7421,-1.21323,-1.21330,0.01011,4.1251,0.00000,-0.00610,-0.14339,10.3406,0.61018,0.61028,-0.06976,0.0000,-1.21323,-1.21162,0.00809,2.8923,0.00000,0.01212,-0.07751,-16.2283,0.61018,0.61225,0.01163,-2.3254,-1.21323,-1.21292,-0.02831,4.6467
0.2200,B,-0.01190,0.00363,-2.19710,-0.01172,-0.02450,-0.03622,-0.18794,-0.33160,8.76158,-0.454887,0.001091,-0.006123,0.890528,79,30.571,9.879,101,15,28,15,0.00000,-0.00413,-0.02325,7.2978,0.61018,0.60653,-0.02713,4.0571,-1.21323,-1.21677,0.01011,7.4916,0.00000,-0.00096,0.01550,-2.2264,0.61018,0.60932,-0.06201,0.7669,-1.21323,-1.21330,0.01011,4.1251,0.00000,-0.00604,0.02325,10.3159,0.61018,0.61031,-0.00388,0.0247,-1.21323,-1.21162,0.00000,2.8923,0.00000,0.01221,0.06588,-16.3520,0.61018,0.61222,-0.03488,-2.1522,-1.21323,-1.21292,-0.01820,4.5993
0.2220,B,-0.01189,0.00359,-2.19715,0.00000,-0.02983,-0.02131,-0.18794,-0.33160,8.76158,-0.454868,0.001108,-0.006111,0.890537,79,30.571,9.981,101,15,28,15,0.00000,-0.00409,-0.00388,7.1988,0.61018,0.60644,-0.03876,4.1560,-1.21323,-1.21675,0.02831,7.5864,0.00000,-0.00093,0.06201,-2.3254,0.61018,0.60935,0.05813,0.7421,-1.21323,-1.21331,-0.03235,4.2199,0.00000,-0.00610,-0.04651,10.4396,0.61018,0.61034,0.05038,0.0247,-1.21323,-1.21160,-0.00404,3.0820,0.00000,0.01215,-0.05038,-16.3520,0.61018,0.61222,0.00775,-2.2512,-1.21323,-1.21292,-0.00809,4.6941
0.2240,B,-0.01187,0.00354,-2.19719,0.00852,-0.02663,-0.02237,-0.18435,-0.28850,8.80587,-0.454847,0.001123,-0.006093,0.890548,79,30.562,9.947,101,15,28,15,0.00000,-0.00406,0.01938,7.0751,0.61018,0.60638,-0.10851,4.0818,-1.21323,-1.21679,-0.03437,7.4442,0.00000,-0.00096,0.01163,-2.2017,0.61018,0.60929,-0.00775,0.8906,-1.21323,-1.21330,-0.00404,4.0777,0.00000,-0.00613,-0.06976,10.5138,0.61018,0.61031,-0.01938,0.0247,-1.21323,-1.21160,0.00607,3.0346,0.00000,0.01218,0.00388,-16.1788,0.61018,0.61219,-0.00388,-2.2017,-1.21323,-1.21293,-0.02629,4.6467
0.2260,B,-0.01189,0.00350,-2.19725,-0.01278,-0.01811,-0.03409,-0.18435,-0.28850,8.80587,-0.454821,0.001143,-0.006090,0.890561,79,30.571,9.947,101,15,28,16,0.00000,-0.00409,-0.04263,7.2731,0.61018,0.60635,-0.06976,4.3292,-1.21323,-1.21679,-0.02831,7.5864,0.00000,-0.00096,0.00775,-2.2264,0.61018,0.60926,-0.03876,0.7421,-1.21323,-1.21328,0.02022,4.1251,0.00000,-0.00613,-0.06201,10.4148,0.61018,0.61034,0.05426,-0.0247,-1.21323,-1.21162,0.00404,3.1294,0.00000,0.01212,-0.10464,-16.4757,0.61018,0.61219,-0.00388,-2.2017,-1.21323,-1.21292,0.00607,4.6467
0.2280,B,-0.01189,0.00343,-2.19731,-0.00426,-0.02237,-0.03089,-0.05507,-0.29449,9.04290,-0.454794,0.001174,-0.006074,0.890575,79,30.571,10.049,101,15,28,16,0.00000,-0.00406,-0.03488,7.1246,0.61018,0.60626,-0.10464,4.3787,-1.21323,-1.21677,-0.00809,7.4916,0.00000,-0.00093,0.05426,-2.2264,0.61018,0.60926,-0.01550,0.7916,-1.21323,-1.21330,0.00000,4.1251,0.00000,-0.00613,0.00775,10.4148,0.61018,0.61028,-0.06588,-0.0247,-1.21323,-1.21164,-0.02022,3.0346,0.00000,0.01212,-0.12789,-16.1046,0.61018,0.61213,-0.05426,-2.1275,-1.21323,-1.21293,0.00607,4.6941
0.2300,B,-0.01189,0.00343,-2.19734,-0.00533,-0.00533,-0.03622,-0.05507,-0.29449,9.04290,-0.454779,0.001177,-0.006073,0.890583,79,30.571,10.084,101,15,28,16,0.00000,-0.00403,0.05038,7.1246,0.61018,0.60626,-0.05813,4.3292,-1.21323,-1.21677,0.00404,7.5864,0.00000,-0.00096,-0.01163,-2.3996,0.61018,0.60920,0.06588,0.8658,-1.21323,-1.21331,-0.03033,4.2199,0.00000,-0.00616,-0.04263,10.4396,0.61018,0.61028,0.02325,0.0247,-1.21323,-1.21162,0.00809,2.8923,0.00000,0.01212,-0.13177,-16.3520,0.61018,0.61213,0.00000,-2.1522,-1.21323,-1.21295,-0.01213,4.6941
0.2320,B,-0.01187,0.00342,-2.19739,0.00320,-0.00533,-0.02024,-0.05507,-0.29449,9.04290,-0.454758,0.001175,-0.006064,0.890593,79,30.562,9.947,101,15,29,16,0.00000,-0.00403,0.06976,7.1246,0.61018,0.60620,-0.12789,4.4034,-1.21323,-1.21679,-0.01820,7.4916,0.00000,-0.00090,0.10464,-2.2264,0.61018,0.60926,0.03876,0.7916,-1.21323,-1.21330,-0.00202,4.2199,0.00000,-0.00619,-0.01938,10.5385,0.61018,0.61031,-0.02325,0.0000,-1.21323,-1.21164,-0.01415,3.0346,0.00000,0.01209,-0.16665,-16.2778,0.61018,0.61207,-0.04263,-2.0038,-1.21323,-1.21296,-0.03235,4.6941
0.2340,B,-0.01191,0.00343,-2.19744,-0.01704,-0.00107,-0.03515,-0.09218,-0.28611,9.22007,-0.454738,0.001183,-0.006083,0.890604,79,30.562,10.049,101,15,29,16,0.00000,-0.00403,0.06976,7.1741,0.61018,0.60617,-0.09301,4.5271,-1.21323,-1.21679,-0.00404,7.6338,0.00000,-0.00093,0.02325,-2.3996,0.61018,0.60920,0.01163,0.9401,-1.21323,-1.21328,-0.03235,4.0777,0.00000,-0.00616,0.01163,10.5138,0.61018,0.61031,-0.02325,0.0247,-1.21323,-1.21164,-0.00809,3.0346,0.00000,0.01218,-0.02713,-16.5252,0.61018,0.61207,-0.02713,-2.2017,-1.21323,-1.21296,-0.01011,4.6941
0.2360,B,-0.01189,0.00338,-2.19749,0.00852,-0.00746,-0.02557,-0.09218,-0.28611,9.22007,-0.454716,0.001196,-0.006063,0.890615,79,30.562,10.186,101,15,29,16,0.00000,-0.00403,-0.01163,7.0257,0.61018,0.60617,-0.01550,4.4034,-1.21323,-1.21679,-0.00404,7.6338,0.00000,-0.00096,-0.02325,-2.3254,0.61018,0.60920,0.02713,0.9895,-1.21323,-1.21331,-0.02022,4.2199,0.00000,-0.00622,-0.01550,10.5385,0.61018,0.61031,-0.00775,-0.0495,-1.21323,-1.21162,0.02022,2.9871,0.00000,0.01215,-0.10851,-16.5252,0.61018,0.61204,-0.02325,-2.0780,-1.21323,-1.21296,-0.00202,4.6941
0.2380,B,-0.01188,0.00337,-2.19753,0.00746,-0.01172,-0.02131,-0.09218,-0.28611,9.22007,-0.454696,0.001203,-0.006057,0.890625,79,30.562,10.152,101,15,30,16,0.00000,-0.00406,-0.05426,7.1246,0.61018,0.60608,-0.11239,4.5024,-1.21323,-1.21679,-0.00404,7.5864,0.00000,-0.00093,-0.00388,-2.3254,0.61018,0.60917,0.01938,0.9895,-1.21323,-1.21331,-0.02831,4.0777,0.00000,-0.00625,-0.01938,10.6127,0.61018,0.61031,0.00775,0.0247,-1.21323,-1.21164,0.00202,3.0346,0.00000,0.01224,0.06588,-16.2531,0.61018,0.61207,0.05426,-2.1275,-1.21323,-1.21299,-0.02629,4.7889
0.2400,B,-0.01188,0.00337,-2.19757,-0.01704,0.01172,-0.02876,-0.06704,-0.27414,9.43196,-0.454677,0.001202,-0.006057,0.890635,79,30.562,10.084,101,15,30,16,0.00000,-0.00406,-0.05426,7.1246,0.61018,0.60602,-0.15115,4.6013,-1.21323,-1.21680,-0.02224,7.4916,0.00000,-0.00093,-0.00388,-2.3254,0.61018,0.60920,0.08139,0.9401,-1.21323,-1.21330,-0.02022,4.1251,0.00000,-0.00622,0.04651,10.5138,0.61018,0.61031,-0.01938,0.0000,-1.21323,-1.21164,-0.01618,3.0346,0.00000,0.01218,-0.05038,-16.4510,0.61018,0.61201,-0.05426,-1.9791,-1.21323,-1.21303,-0.04853,4.8363
0.2420,B,-0.01186,0.00336,-2.19762,0.01172,0.00000,-0.03196,-0.06704,-0.27414,9.43196,-0.454654,0.001200,-0.006044,0.890647,79,30.562,10.118,101,15,30,16,0.00000,-0.00403,-0.03100,7.0257,0.61018,0.60599,-0.04263,4.7992,-1.21323,-1.21679,0.01618,7.5864,0.00000,-0.00093,-0.01550,-2.3254,0.61018,0.60911,0.00388,0.8658,-1.21323,-1.21331,-0.02022,4.2199,0.00000,-0.00628,-0.03488,10.6127,0.61018,0.61028,-0.03876,0.0495,-1.21323,-1.21164,0.01011,3.0346,0.00000,0.01224,0.03488,-16.5252,0.61018,0.61201,0.01163,-2.0038,-1.21323,-1.21303,-0.02022,4.8363
0.2440,B,-0.01188,0.00334,-2.19767,-0.01491,-0.00533,-0.02770,-0.03232,-0.30167,9.65582,-0.454635,0.001214,-0.006050,0.890656,79,30.562,10.084,101,15,30,16,0.00000,-0.00397,0.08139,7.0009,0.61018,0.60599,-0.03876,4.6261,-1.21323,-1.21677,0.04246,7.4916,0.00000,-0.00087,0.08139,-2.3501,0.61018,0.60908,-0.06976,0.8906,-1.21323,-1.21331,-0.01618,4.1251,0.00000,-0.00628,0.00000,10.7364,0.61018,0.61031,0.00775,0.0247,-1.21323,-1.21162,0.04448,3.0346,0.00000,0.01215,-0.12014,-16.1788,0.61018,0.61192,-0.09301,-1.9048,-1.21323,-1.21304,-0.03235,4.8363
0.2460,B,-0.01188,0.00332,-2.19770,0.00426,-0.00959,-0.02024,-0.03232,-0.30167,9.65582,-0.454620,0.001220,-0.006044,0.890664,79,30.562,10.186,101,15,30,16,0.00000,-0.00403,0.00000,7.1988,0.61018,0.60593,-0.01550,4.7250,-1.21323,-1.21680,0.00404,7.4916,0.00000,-0.00087,0.05038,-2.4491,0.61018,0.60905,-0.01938,1.0885,-1.21323,-1.21330,0.01011,4.0777,0.00000,-0.00634,-0.06976,10.6622,0.61018,0.61034,0.03876,-0.0495,-1.21323,-1.21165,0.00000,3.0820,0.00000,0.01227,-0.15890,-16.5252,0.61018,0.61201,0.08526,-2.1028,-1.21323,-1.21306,-0.02022,4.8363
0.2480,B,-0.01188,0.00332,-2.19773,-0.00320,-0.00213,-0.01704,-0.03232,-0.30167,9.65582,-0.454606,0.001223,-0.006043,0.890671,79,30.562,10.118,101,15,30,16,0.00000,-0.00397,0.07363,7.0009,0.61018,0.60596,0.01550,4.6013,-1.21323,-1.21680,0.00404,7.4916,0.00000,-0.00087,0.05038,-2.4491,0.61018,0.60908,0.03876,0.8906,-1.21323,-1.21330,0.01011,4.0777,0.00000,-0.00634,-0.06976,10.6622,0.61018,0.61028,-0.06201,0.0742,-1.21323,-1.21165,0.01011,3.0820,0.00000,0.01227,0.04263,-16.5499,0.61018,0.61192,-0.02325,-1.8801,-1.21323,-1.21307,-0.03640,4.7889
0.2500,B,-0.01187,0.00333,-2.19776,0.00000,0.01065,-0.02557,-0.06704,-0.30167,9.78151,-0.454593,0.001216,-0.006043,0.890678,79,30.562,10.220,101,15,31,16,0.00000,-0.00400,0.02713,7.1741,0.61018,0.60590,0.00000,4.7250,-1.21323,-1.21680,0.01011,7.5864,0.00000,-0.00087,0.02325,-2.2512,0.61018,0.60902,0.06201,1.1627,-1.21323,-1.21330,0.01011,4.1251,0.00000,-0.00634,-0.08526,10.5138,0.61018,0.61031,0.01550,0.0247,-1.21323,-1.21167,-0.00404,3.0820,0.00000,0.01227,0.07363,-16.4262,0.61018,0.61195,0.05038,-1.9791,-1.21323,-1.21307,0.00000,4.8363
0.2520,B,-0.01186,0.00328,-2.19779,0.01278,-0.01917,-0.02024,-0.06704,-0.30167,9.78151,-0.454579,0.001235,-0.006030,0.890685,79,30.562,10.152,101,15,31,16,0.00000,-0.00400,0.00388,7.0751,0.61018,0.60584,-0.04263,4.7498,-1.21323,-1.21679,0.05055,7.6338,0.00000,-0.00084,0.06976,-2.3996,0.61018,0.60899,-0.01550,1.0390,-1.21323,-1.21331,-0.02022,4.2199,0.00000,-0.00631,0.01163,10.6375,0.61018,0.61031,-0.00388,0.0000,-1.21323,-1.21165,0.02022,3.0346,0.00000,0.01221,-0.05426,-16.4757,0.61018,0.61186,0.03876,-1.8801,-1.21323,-1.21309,-0.01213,4.8363
0.2540,B,-0.01187,0.00324,-2.19782,-0.01065,-0.00852,-0.01278,-0.01077,-0.25259,9.93833,-0.454565,0.001253,-0.006022,0.890692,79,30.562,10.084,101,15,31,16,0.00000,-0.00400,-0.01938,7.0751,0.61018,0.60584,0.01938,4.8982,-1.21323,-1.21682,-0.02224,7.6338,0.00000,-0.00084,0.02713,-2.5233,0.61018,0.60899,0.03876,1.0885,-1.21323,-1.21331,-0.01820,4.2199,0.00000,-0.00634,-0.01938,10.7364,0.61018,0.61031,-0.02713,0.0495,-1.21323,-1.21167,0.00000,3.1294,0.00000,0.01224,0.00388,-16.2531,0.61018,0.61189,0.01550,-2.0038,-1.21323,-1.21311,0.00000,4.8837
0.2560,B,-0.01186,0.00323,-2.19787,-0.00426,-0.00426,-0.02344,-0.01077,-0.25259,9.93833,-0.454547,0.001257,-0.006014,0.890702,79,30.553,10.220,101,15,31,16,0.00000,-0.00397,0.03100,7.0009,0.61018,0.60578,-0.05038,4.9229,-1.21323,-1.21680,0.03842,7.5864,0.00000,-0.00084,0.01163,-2.3996,0.61018,0.60899,0.04651,1.0885,-1.21323,-1.21331,-0.00809,4.1251,0.00000,-0.00634,0.01938,10.7364,0.61018,0.61025,-0.12402,0.0247,-1.21323,-1.21167,0.02022,3.0820,0.00000,0.01227,0.06588,-16.4757,0.61018,0.61186,0.03876,-1.6327,-1.21323,-1.21314,-0.03640,4.8363
0.2580,B,-0.01184,0.00320,-2.19791,0.00959,-0.00852,-0.03515,-0.01077,-0.25259,9.93833,-0.454526,0.001265,-0.006001,0.890713,79,30.562,10.118,101,15,31,16,0.00000,-0.00394,0.06201,7.0009,0.61018,0.60575,-0.01550,5.0219,-1.21323,-1.21682,0.01415,7.5864,0.00000,-0.00081,0.05813,-2.4491,0.61018,0.60896,0.01938,1.0390,-1.21323,-1.21331,-0.00809,4.2199,0.00000,-0.00637,-0.06588,10.5138,0.61018,0.61028,-0.00388,0.0000,-1.21323,-1.21165,0.04651,2.9871,0.00000,0.01215,-0.17827,-16.2778,0.61018,0.61183,-0.01163,-1.8306,-1.21323,-1.21314,-0.02022,4.8363
0.2600,B,-0.01182,0.00312,-2.19799,0.00000,-0.02131,-0.03622,-0.05387,-0.25618,9.80545,-0.454489,0.001299,-0.005975,0.890731,79,30.553,10.118,101,15,32,16,0.00000,-0.00394,-0.00775,7.0999,0.61018,0.60566,-0.06976,4.9971,-1.21323,-1.21683,0.00000,7.6812,0.00000,-0.00081,0.09301,-2.5233,0.61018,0.60890,0.00000,1.1874,-1.21323,-1.21331,-0.01011,4.2199,0.00000,-0.00640,-0.07363,10.7612,0.61018,0.61028,-0.06976,0.0495,-1.21323,-1.21168,0.00202,3.0820,0.00000,0.01227,0.03488,-16.5499,0.61018,0.61177,-0.01938,-1.7069,-1.21323,-1.21315,-0.03033,4.8837
0.2640,B,-0.01181,0.00305,-2.19804,-0.00107,-0.02024,-0.02557,0.05626,-0.23822,10.01973,-0.454467,0.001324,-0.005955,0.890742,79,30.562,10.357,101,15,32,16,0.00000,-0.00391,0.04263,7.0257,0.61018,0.60560,-0.10851,5.0219,-1.21323,-1.21683,-0.00202,7.6338,0.00000,-0.00081,0.01163,-2.3254,0.61018,0.60893,0.08139,1.2122,-1.21323,-1.21333,-0.03235,4.2199,0.00000,-0.00634,0.06201,10.6622,0.61018,0.61028,-0.04651,0.0000,-1.21323,-1.21167,0.00202,3.0820,0.00000,0.01227,0.01938,-16.6983,0.61018,0.61177,-0.00388,-1.7812,-1.21323,-1.21315,-0.02022,4.9786
0.2660,B,-0.01180,0.00301,-2.19806,-0.01278,-0.01278,-0.00852,0.05626,-0.23822,10.01973,-0.454458,0.001340,-0.005942,0.890747,79,30.562,10.015,101,15,32,16,0.00000,-0.00388,0.06201,7.0257,0.61018,0.60563,-0.04263,4.9477,-1.21323,-1.21682,0.03033,7.5864,0.00000,-0.00078,0.09689,-2.3501,0.61018,0.60890,0.03100,1.1874,-1.21323,-1.21331,-0.01618,4.1251,0.00000,-0.00640,-0.04651,10.6375,0.61018,0.61025,-0.10851,0.0742,-1.21323,-1.21167,0.03235,3.0820,0.00000,0.01224,-0.03488,-16.3520,0.61018,0.61180,0.02713,-1.8801,-1.21323,-1.21315,-0.02022,4.8837
0.2680,B,-0.01179,0.00296,-2.19812,0.00426,-0.02663,-0.03089,0.05626,-0.23822,10.01973,-0.454435,0.001362,-0.005924,0.890759,79,30.562,10.255,101,15,32,16,0.00000,-0.00388,0.03876,6.9762,0.61018,0.60563,0.01938,5.0219,-1.21323,-1.21682,0.01820,7.6338,0.00000,-0.00081,0.02325,-2.4986,0.61018,0.60887,0.00388,1.1627,-1.21323,-1.21331,-0.02022,4.1251,0.00000,-0.00640,-0.02713,10.8106,0.61018,0.61028,-0.05426,-0.0247,-1.21323,-1.21168,0.01618,3.1294,0.00000,0.01234,0.14727,-16.2531,0.61018,0.61177,0.01550,-1.7317,-1.21323,-1.21315,-0.02022,4.8363
0.2700,B,-0.01178,0.00289,-2.19814,-0.00746,-0.01278,-0.01065,0.05148,-0.25857,9.72405,-0.454425,0.001390,-0.005903,0.890764,79,30.562,10.186,101,15,32,16,0.00000,-0.00391,-0.03876,6.9020,0.61018,0.60553,-0.05426,5.0961,-1.21323,-1.21682,0.02629,7.5864,0.00000,-0.00087,-0.01938,-2.2264,0.61018,0.60887,0.03100,1.1627,-1.21323,-1.21331,0.00607,4.2199,0.00000,-0.00643,-0.08914,10.7117,0.61018,0.61028,-0.03876,0.0742,-1.21323,-1.21168,0.02426,3.1294,0.00000,0.01231,0.11239,-16.3520,0.61018,0.61177,0.02713,-1.9048,-1.21323,-1.21315,-0.00404,4.8837
0.2720,B,-0.01177,0.00287,-2.19817,0.00426,-0.00213,-0.02557,0.05148,-0.25857,9.72405,-0.454408,0.001394,-0.005894,0.890773,79,30.553,10.118,101,15,32,16,0.00000,-0.00388,0.00000,7.0257,0.61018,0.60553,-0.01163,5.1456,-1.21323,-1.21682,0.03235,7.6812,0.00000,-0.00081,0.02713,-2.4491,0.61018,0.60887,0.07751,1.1627,-1.21323,-1.21331,-0.02022,4.1251,0.00000,-0.00640,-0.02325,10.6622,0.61018,0.61028,-0.03876,0.0495,-1.21323,-1.21168,0.01618,3.1294,0.00000,0.01227,0.02325,-16.3520,0.61018,0.61177,0.09301,-1.8306,-1.21323,-1.21317,-0.03235,4.8363
0.2740,B,-0.01176,0.00282,-2.19822,0.00000,-0.01704,-0.02450,0.08619,-0.19154,9.64145,-0.454389,0.001415,-0.005881,0.890783,79,30.553,10.186,101,15,32,16,0.00000,-0.00388,-0.04263,6.9267,0.61018,0.60550,-0.01550,5.2693,-1.21323,-1.21683,-0.00809,7.5864,0.00000,-0.00084,0.00000,-2.3254,0.61018,0.60883,0.04263,1.1874,-1.21323,-1.21331,-0.02629,4.2199,0.00000,-0.00640,-0.08914,10.6622,0.61018,0.61031,0.00388,0.0247,-1.21323,-1.21168,0.02022,3.0820,0.00000,0.01227,0.02325,-16.5746,0.61018,0.61171,-0.08526,-1.8801,-1.21323,-1.21317,0.00000,4.8837
0.2760,B,-0.01174,0.00279,-2.19826,0.01491,-0.01278,-0.02024,0.08619,-0.19154,9.64145,-0.454372,0.001425,-0.005864,0.890792,79,30.562,10.186,101,15,32,16,0.00000,-0.00382,0.01163,6.8030,0.61018,0.60547,-0.03876,5.1208,-1.21323,-1.21685,-0.03640,7.5864,0.00000,-0.00081,0.06976,-2.4244,0.61018,0.60883,0.08139,1.3606,-1.21323,-1.21331,-0.02022,4.2199,0.00000,-0.00643,-0.07751,10.8106,0.61018,0.61031,-0.02713,0.0247,-1.21323,-1.21168,0.03033,3.1294,0.00000,0.01227,0.03876,-16.2283,0.61018,0.61171,0.01163,-1.6822,-1.21323,-1.21315,0.00202,4.8837
0.2780,B,-0.01173,0.00273,-2.19832,0.01491,-0.01065,-0.01917,0.10415,-0.18316,9.62110,-0.454346,0.001447,-0.005847,0.890805,79,30.562,10.152,101,15,32,16,0.00000,-0.00382,-0.03100,6.9020,0.61018,0.60541,-0.00388,5.0466,-1.21323,-1.21682,0.01618,7.5864,0.00000,-0.00087,-0.04651,-2.3007,0.61018,0.60880,0.05813,1.3853,-1.21323,-1.21330,0.00202,4.1251,0.00000,-0.00643,-0.05038,10.6622,0.61018,0.61031,-0.00775,0.0000,-1.21323,-1.21168,0.03033,3.0346,0.00000,0.01224,0.05426,-16.2283,0.61018,0.61171,-0.06588,-1.7812,-1.21323,-1.21317,-0.02022,4.8837
0.2800,B,-0.01171,0.00271,-2.19834,0.01491,-0.01385,-0.02344,0.10415,-0.18316,9.62110,-0.454336,0.001452,-0.005832,0.890810,79,30.553,10.084,101,15,32,15,0.00000,-0.00376,0.05813,6.9020,0.61018,0.60538,-0.08526,5.2693,-1.21323,-1.21682,0.02022,7.5864,0.00000,-0.00087,-0.03488,-2.4986,0.61018,0.60880,0.03876,1.2122,-1.21323,-1.21330,0.00000,4.2199,0.00000,-0.00640,-0.03100,10.5632,0.61018,0.61034,0.06201,0.0000,-1.21323,-1.21170,0.02831,3.0820,0.00000,0.01227,0.05426,-16.4262,0.61018,0.61174,0.01938,-1.7812,-1.21323,-1.21317,-0.02224,4.8363
0.2820,B,-0.01169,0.00267,-2.19836,-0.00107,-0.00959,-0.01385,0.10415,-0.18316,9.62110,-0.454325,0.001465,-0.005816,0.890816,79,30.553,10.220,101,15,32,15,0.00000,-0.00373,0.05813,6.7041,0.61018,0.60538,-0.02325,5.2693,-1.21323,-1.21683,-0.01213,7.6338,0.00000,-0.00090,-0.08914,-2.2512,0.61018,0.60877,0.02713,1.3853,-1.21323,-1.21328,0.03842,4.2199,0.00000,-0.00640,-0.05813,10.7364,0.61018,0.61031,-0.01550,0.0495,-1.21323,-1.21172,-0.03235,3.2242,0.00000,0.01215,-0.15890,-16.1788,0.61018,0.61171,0.00775,-1.6327,-1.21323,-1.21317,-0.02629,4.8363
0.2840,B,-0.01164,0.00261,-2.19842,0.01598,-0.02663,-0.00852,0.05986,-0.16520,9.33978,-0.454297,0.001483,-0.005777,0.890830,79,30.553,10.049,101,15,32,15,0.00000,-0.00373,0.00775,6.8772,0.61018,0.60538,-0.05813,5.2445,-1.21323,-1.21683,-0.01011,7.6812,0.00000,-0.00087,-0.02713,-2.3254,0.61018,0.60874,-0.01550,1.3853,-1.21323,-1.21330,0.00000,4.2199,0.00000,-0.00643,-0.06588,10.4148,0.61018,0.61031,0.00388,0.0000,-1.21323,-1.21168,0.03033,3.1294,0.00000,0.01227,0.06588,-16.5252,0.61018,0.61171,-0.00775,-1.6822,-1.21323,-1.21317,-0.02022,4.8837
0.2880,B,-0.01160,0.00257,-2.19845,-0.00746,0.00320,-0.01917,0.05986,-0.16520,9.33978,-0.454284,0.001491,-0.005750,0.890837,79,30.562,10.255,101,15,32,15,0.00000,-0.00367,0.08914,6.7783,0.61018,0.60535,-0.02713,5.2445,-1.21323,-1.21682,0.01415,7.6338,0.00000,-0.00081,0.06976,-2.5233,0.61018,0.60874,0.01550,1.4596,-1.21323,-1.21330,-0.01618,4.2199,0.00000,-0.00643,-0.06201,10.6375,0.61018,0.61031,0.00775,0.0247,-1.21323,-1.21170,0.04246,3.1294,0.00000,0.01227,0.06588,-16.3520,0.61018,0.61174,0.10076,-1.8306,-1.21323,-1.21317,-0.02831,4.8837
0.2900,B,-0.01159,0.00253,-2.19849,0.00852,-0.00746,-0.02024,0.17478,-0.13048,9.40323,-0.454269,0.001504,-0.005736,0.890845,79,30.553,10.323,101,15,32,15,0.00000,-0.00370,0.01938,6.8030,0.61018,0.60535,-0.00775,5.2445,-1.21323,-1.21683,-0.01820,7.5864,0.00000,-0.00084,-0.03488,-2.2512,0.61018,0.60877,0.07751,1.1627,-1.21323,-1.21330,-0.02022,4.2199,0.00000,-0.00640,0.00775,10.7364,0.61018,0.61028,-0.03876,0.0000,-1.21323,-1.21172,-0.00809,3.1294,0.00000,0.01218,0.05813,-16.4757,0.61018,0.61168,0.02325,-1.4596,-1.21323,-1.21317,-0.02022,4.9786
0.2920,B,-0.01155,0.00246,-2.19853,0.02131,-0.01811,-0.02237,0.15083,-0.05746,9.18775,-0.454248,0.001524,-0.005703,0.890856,79,30.562,10.186,101,15,32,15,0.00000,-0.00370,-0.01938,6.6793,0.61018,0.60532,-0.03876,5.2445,-1.21323,-1.21683,-0.02022,7.5864,0.00000,-0.00081,0.08139,-2.3254,0.61018,0.60868,-0.08526,1.3853,-1.21323,-1.21330,-0.03640,4.1251,0.00000,-0.00640,0.00775,10.9096,0.61018,0.61031,-0.06976,0.0247,-1.21323,-1.21172,-0.00809,3.1294,0.00000,0.01218,-0.08526,-16.4757,0.61018,0.61168,0.01550,-1.6080,-1.21323,-1.21317,-0.02022,4.9786
0.2960,B,-0.01152,0.00241,-2.19855,0.00107,-0.02237,-0.00959,0.15083,-0.05746,9.18775,-0.454241,0.001542,-0.005679,0.890860,79,30.562,10.084,101,15,32,15,0.00000,-0.00370,-0.01938,6.5804,0.61018,0.60532,-0.02325,5.3435,-1.21323,-1.21680,0.04651,7.5864,0.00000,-0.00087,0.02713,-2.4491,0.61018,0.60871,-0.01163,1.3853,-1.21323,-1.21330,-0.03640,4.2199,0.00000,-0.00640,0.03100,10.6622,0.61018,0.61031,0.05038,0.0247,-1.21323,-1.21172,-0.00607,3.1294,0.00000,0.01234,0.20540,-16.4757,0.61018,0.61165,0.00775,-1.6327,-1.21323,-1.21315,0.01011,4.8363
0.2980,B,-0.01149,0.00238,-2.19856,0.00639,-0.01491,-0.00852,0.15083,-0.05746,9.18775,-0.454236,0.001549,-0.005658,0.890862,79,30.553,10.186,101,15,32,15,0.00000,-0.00364,0.03488,6.6051,0.61018,0.60532,-0.03100,5.1950,-1.21323,-1.21682,0.02629,7.5864,0.00000,-0.00087,-0.02713,-2.3501,0.61018,0.60874,0.01550,1.1874,-1.21323,-1.21328,-0.01415,4.2199,0.00000,-0.00640,-0.01938,10.8106,0.61018,0.61031,0.01938,0.0495,-1.21323,-1.21173,-0.03640,3.0346,0.00000,0.01224,0.02713,-16.1788,0.61018,0.61171,0.05813,-1.7812,-1.21323,-1.21315,0.00404,4.8837
0.3000,B,-0.01146,0.00237,-2.19856,0.00107,0.01172,0.00533,0.10894,-0.08978,9.17099,-0.454234,0.001550,-0.005644,0.890863,79,30.562,10.186,101,15,32,15,0.00000,-0.00361,0.08526,6.5556,0.61018,0.60532,-0.01550,5.3682,-1.21323,-1.21682,0.02426,7.4916,0.00000,-0.00084,0.00388,-2.4491,0.61018,0.60874,0.03876,1.3853,-1.21323,-1.21328,-0.02022,4.0777,0.00000,-0.00640,-0.03488,10.6375,0.61018,0.61028,-0.05813,-0.0247,-1.21323,-1.21172,-0.00202,3.0820,0.00000,0.01215,-0.13177,-16.4262,0.61018,0.61168,0.00000,-1.6822,-1.21323,-1.21317,-0.02224,4.8363
0.3020,B,-0.01145,0.00236,-2.19858,0.00320,0.00213,-0.01598,0.10894,-0.08978,9.17099,-0.454228,0.001550,-0.005637,0.890866,79,30.553,10.152,101,15,32,15,0.00000,-0.00364,0.01938,6.7783,0.61018,0.60532,0.05813,5.2445,-1.21323,-1.21683,-0.01011,7.6338,0.00000,-0.00084,0.01163,-2.3996,0.61018,0.60874,0.03100,1.2864,-1.21323,-1.21326,0.01011,4.2199,0.00000,-0.00640,-0.03100,10.6127,0.61018,0.61031,0.00000,0.0247,-1.21323,-1.21170,0.02022,3.1294,0.00000,0.01224,0.03100,-16.6241,0.61018,0.61171,0.06976,-1.6080,-1.21323,-1.21317,-0.02426,4.8363
0.3040,B,-0.01143,0.00232,-2.19860,0.01172,-0.01172,-0.01811,0.14365,-0.01197,9.18057,-0.454220,0.001559,-0.005618,0.890870,79,30.553,10.220,101,15,32,15,0.00000,-0.00364,0.01550,6.5062,0.61018,0.60529,-0.05813,5.1950,-1.21323,-1.21682,0.01011,7.4442,0.00000,-0.00087,-0.05426,-2.3996,0.61018,0.60874,0.03876,1.2864,-1.21323,-1.21328,-0.01415,4.1251,0.00000,-0.00640,-0.02325,10.6622,0.61018,0.61028,-0.01550,0.0247,-1.21323,-1.21172,0.00809,3.2716,0.00000,0.01224,0.03100,-16.6241,0.61018,0.61165,-0.01938,-1.7069,-1.21323,-1.21315,0.01011,4.8837
0.3060,B,-0.01142,0.00231,-2.19860,-0.00852,0.00213,-0.00107,0.14365,-0.01197,9.18057,-0.454220,0.001562,-0.005611,0.890871,79,30.562,10.220,101,15,32,15,0.00000,-0.00358,0.13564,6.6546,0.61018,0.60529,-0.05813,5.2198,-1.21323,-1.21680,0.04448,7.4916,0.00000,-0.00081,0.05426,-2.3996,0.61018,0.60874,0.03876,1.2864,-1.21323,-1.21328,-0.01213,4.2199,0.00000,-0.00640,-0.04263,10.6375,0.61018,0.61028,-0.01550,0.0247,-1.21323,-1.21172,0.00000,3.1294,0.00000,0.01215,-0.16665,-16.5252,0.61018,0.61168,0.01550,-1.6327,-1.21323,-1.21317,-0.02426,4.8363
0.3080,B,-0.01138,0.00229,-2.19860,0.01278,-0.01172,-0.00213,0.14365,-0.01197,9.18057,-0.454219,0.001566,-0.005591,0.890871,79,30.553,10.152,101,15,32,15,0.00000,-0.00364,0.02713,6.7783,0.61018,0.60535,0.01938,5.2198,-1.21323,-1.21682,0.01618,7.5864,0.00000,-0.00084,-0.00775,-2.4491,0.61018,0.60874,0.05426,1.3606,-1.21323,-1.21328,-0.01415,4.2199,0.00000,-0.00646,-0.15502,10.5632,0.61018,0.61028,-0.06201,0.0742,-1.21323,-1.21173,-0.01618,3.1294,0.00000,0.01218,-0.11239,-16.6241,0.61018,0.61171,0.03100,-1.8801,-1.21323,-1.21318,-0.04853,4.8837
0.3100,B,-0.01135,0.00229,-2.19860,0.00320,0.01598,0.00000,0.11253,-0.02035,9.33380,-0.454220,0.001557,-0.005574,0.890871,79,30.562,10.118,101,15,32,15,0.00000,-0.00364,0.02713,6.7041,0.61018,0.60532,-0.03876,5.1950,-1.21323,-1.21683,-0.00607,7.5864,0.00000,-0.00084,-0.01163,-2.4491,0.61018,0.60874,0.01550,1.3111,-1.21323,-1.21328,-0.00607,4.2199,0.00000,-0.00640,-0.02713,10.6127,0.61018,0.61028,0.00000,0.0000,-1.21323,-1.21173,-0.01011,3.1294,0.00000,0.01221,-0.05813,-16.2778,0.61018,0.61168,0.03876,-1.6080,-1.21323,-1.21317,-0.02022,4.9786
0.3120,B,-0.01133,0.00227,-2.19858,0.00213,-0.00746,0.00639,0.11253,-0.02035,9.33380,-0.454226,0.001564,-0.005561,0.890868,79,30.562,10.015,101,15,32,15,0.00000,-0.00364,0.03876,6.6546,0.61018,0.60535,0.00000,5.0961,-1.21323,-1.21683,-0.01618,7.6338,0.00000,-0.00081,0.01550,-2.4986,0.61018,0.60874,0.03488,1.2864,-1.21323,-1.21328,-0.01213,4.2199,0.00000,-0.00637,0.02713,10.8106,0.61018,0.61028,-0.05038,0.0000,-1.21323,-1.21173,-0.00404,3.2242,0.00000,0.01224,0.00000,-16.4510,0.61018,0.61168,0.02325,-1.7812,-1.21323,-1.21317,-0.02426,4.8363
0.3140,B,-0.01128,0.00223,-2.19854,-0.00107,0.01278,0.01065,0.20111,0.01796,9.50259,-0.454244,0.001565,-0.005530,0.890859,79,30.562,10.220,101,15,33,15,0.00000,-0.00367,0.00388,6.7783,0.61018,0.60538,0.00000,5.1950,-1.21323,-1.21683,-0.00202,7.4916,0.00000,-0.00081,0.03876,-2.4491,0.61018,0.60874,0.01163,1.2864,-1.21323,-1.21328,-0.01618,4.0777,0.00000,-0.00643,-0.10076,10.6375,0.61018,0.61031,-0.02713,0.0742,-1.21323,-1.21172,0.04246,3.0820,0.00000,0.01227,0.03100,-16.2531,0.61018,0.61177,0.12014,-1.8059,-1.21323,-1.21317,-0.02022,4.8363
0.3160,B,-0.01125,0.00223,-2.19853,0.00000,0.00320,-0.00639,0.20111,0.01796,9.50259,-0.454248,0.001561,-0.005521,0.890857,79,30.562,10.186,101,15,33,15,0.00000,-0.00367,0.00000,6.8278,0.61018,0.60544,0.07363,5.0466,-1.21323,-1.21685,-0.02831,7.5864,0.00000,-0.00084,0.07751,-2.5480,0.61018,0.60877,0.05813,1.2864,-1.21323,-1.21328,0.00607,4.0777,0.00000,-0.00637,0.02325,10.6622,0.61018,0.61034,-0.05038,-0.0247,-1.21323,-1.21175,-0.01213,3.1294,0.00000,0.01221,-0.09301,-16.4510,0.61018,0.61171,0.05426,-1.6327,-1.21323,-1.21315,0.00000,4.8363
0.3200,B,-0.01124,0.00221,-2.19851,-0.00852,-0.00107,0.01172,0.07422,0.05626,9.51097,-0.454258,0.001568,-0.005510,0.890852,79,30.553,10.289,101,15,33,15,0.00000,-0.00367,-0.00388,6.7041,0.61018,0.60541,-0.01550,5.1208,-1.21323,-1.21682,0.02629,7.6338,0.00000,-0.00084,-0.02325,-2.4986,0.61018,0.60877,0.03100,1.1874,-1.21323,-1.21326,0.01213,4.0777,0.00000,-0.00643,-0.12402,10.6622,0.61018,0.61034,0.01550,-0.0495,-1.21323,-1.21175,-0.00404,3.2242,0.00000,0.01224,-0.03876,-16.2778,0.61018,0.61174,0.01550,-1.8801,-1.21323,-1.21317,-0.01820,4.8363
0.3220,B,-0.01125,0.00221,-2.19849,-0.01385,0.00213,0.01065,0.07422,0.05626,9.51097,-0.454268,0.001569,-0.005513,0.890847,79,30.553,9.981,101,15,33,15,0.00000,-0.00367,-0.01163,6.6793,0.61018,0.60547,0.04263,5.0466,-1.21323,-1.21683,0.01415,7.5864,0.00000,-0.00081,0.05426,-2.4244,0.61018,0.60874,-0.01938,1.2864,-1.21323,-1.21328,-0.01820,4.1251,0.00000,-0.00640,-0.06201,10.7117,0.61018,0.61034,0.01550,-0.0247,-1.21323,-1.21175,0.02426,3.1294,0.00000,0.01227,0.03100,-16.4510,0.61018,0.61168,-0.00775,-1.7069,-1.21323,-1.21315,-0.00202,4.8837
0.3240,B,-0.01121,0.00220,-2.19848,0.00000,0.00320,0.01278,0.14964,0.04190,9.63187,-0.454273,0.001567,-0.005493,0.890844,79,30.553,10.118,101,15,33,15,0.00000,-0.00364,0.06976,6.7783,0.61018,0.60544,-0.03876,5.1456,-1.21323,-1.21683,0.00404,7.4916,0.00000,-0.00084,-0.04263,-2.3996,0.61018,0.60874,-0.03100,1.3606,-1.21323,-1.21328,-0.00809,4.0777,0.00000,-0.00634,0.03100,10.6375,0.61018,0.61034,0.03488,0.0247,-1.21323,-1.21173,0.03437,3.1294,0.00000,0.01227,0.00388,-16.3520,0.61018,0.61174,0.01550,-1.8059,-1.21323,-1.21317,-0.02629,4.8837
0.3260,B,-0.01120,0.00218,-2.19845,-0.00959,-0.00213,0.01385,0.14964,0.04190,9.63187,-0.454285,0.001570,-0.005483,0.890838,79,30.562,10.084,101,15,33,15,0.00000,-0.00367,0.02713,6.8030,0.61018,0.60550,0.03100,4.9229,-1.21323,-1.21682,0.04448,7.5864,0.00000,-0.00081,0.04651,-2.4491,0.61018,0.60877,-0.00388,1.2617,-1.21323,-1.21326,0.02224,4.1251,0.00000,-0.00634,0.01550,10.6375,0.61018,0.61031,-0.05038,-0.0495,-1.21323,-1.21176,-0.02831,3.2242,0.00000,0.01218,-0.00775,-16.2778,0.61018,0.61174,0.08914,-1.6327,-1.21323,-1.21317,-0.02022,4.8363
0.3280,B,-0.01118,0.00216,-2.19842,-0.01917,0.00213,0.02237,0.14964,0.04190,9.63187,-0.454298,0.001575,-0.005469,0.890832,79,30.553,10.255,101,15,33,15,0.00000,-0.00367,0.05813,6.7783,0.61018,0.60550,0.00000,5.0219,-1.21323,-1.21685,-0.01820,7.5864,0.00000,-0.00081,0.03488,-2.3996,0.61018,0.60880,0.05813,1.2864,-1.21323,-1.21328,-0.01213,4.2199,0.00000,-0.00637,0.02325,10.7117,0.61018,0.61031,-0.04651,0.0000,-1.21323,-1.21175,0.00000,3.1294,0.00000,0.01234,-0.16665,-16.3767,0.61018,0.61177,0.03488,-1.9791,-1.21323,-1.21317,-0.02022,4.9786
0.3300,B,-0.01116,0.00212,-2.19839,0.00746,-0.00746,0.00639,0.02394,0.03591,9.66300,-0.454311,0.001591,-0.005454,0.890825,79,30.562,10.015,101,15,33,15,0.00000,-0.00370,0.00000,6.7536,0.61018,0.60550,0.00000,5.0219,-1.21323,-1.21683,0.01618,7.6812,0.00000,-0.00084,0.01550,-2.3254,0.61018,0.60877,-0.01550,1.3606,-1.21323,-1.21326,0.01415,4.0777,0.00000,-0.00637,-0.06588,10.6622,0.61018,0.61034,0.00000,-0.0495,-1.21323,-1.21175,0.00809,3.1294,0.00000,0.01224,-0.06588,-16.4757,0.61018,0.61168,-0.06976,-1.5833,-1.21323,-1.21315,0.00809,4.8837
0.3320,B,-0.01114,0.00214,-2.19837,-0.00746,0.02663,0.00746,0.02394,0.03591,9.66300,-0.454320,0.001578,-0.005449,0.890820,79,30.562,10.186,101,15,33,15,0.00000,-0.00367,0.06976,6.8030,0.61018,0.60553,-0.04651,4.9229,-1.21323,-1.21682,0.04651,7.5864,0.00000,-0.00081,0.01163,-2.4244,0.61018,0.60883,0.09301,1.0637,-1.21323,-1.21326,0.00809,4.1251,0.00000,-0.00637,-0.06201,10.7364,0.61018,0.61031,-0.03876,0.0495,-1.21323,-1.21175,0.01415,3.2716,0.00000,0.01234,0.07751,-16.6736,0.61018,0.61177,0.05813,-2.0285,-1.21323,-1.21315,0.00809,4.8363
0.3340,B,-0.01112,0.00212,-2.19834,0.00320,0.01065,0.01385,0.03232,0.04788,9.63666,-0.454336,0.001579,-0.005433,0.890813,79,30.553,10.186,101,15,33,15,0.00000,-0.00373,-0.01938,6.9762,0.61018,0.60560,0.00775,4.9229,-1.21323,-1.21685,-0.01011,7.5864,0.00000,-0.00081,0.05813,-2.3254,0.61018,0.60880,0.01163,1.3111,-1.21323,-1.21330,-0.04651,4.0777,0.00000,-0.00631,0.03876,10.6375,0.61018,0.61031,-0.06201,0.0742,-1.21323,-1.21175,0.00809,3.2242,0.00000,0.01231,0.00775,-16.7478,0.61018,0.61174,0.00775,-1.7812,-1.21323,-1.21317,-0.02831,4.8363
0.3360,B,-0.01109,0.00212,-2.19831,0.00107,-0.00639,0.01172,0.03232,0.04788,9.63666,-0.454347,0.001575,-0.005423,0.890807,79,30.562,10.152,101,15,33,15,0.00000,-0.00370,0.01938,6.7783,0.61018,0.60560,-0.05813,4.9971,-1.21323,-1.21685,-0.01618,7.6338,0.00000,-0.00081,0.00000,-2.4491,0.61018,0.60883,0.00388,1.3111,-1.21323,-1.21328,-0.02022,4.0777,0.00000,-0.00631,0.00775,10.4643,0.61018,0.61034,0.00000,-0.0495,-1.21323,-1.21175,0.00607,3.2716,0.00000,0.01224,-0.10464,-16.5499,0.61018,0.61174,-0.00775,-1.8306,-1.21323,-1.21315,0.00607,4.8837
0.3380,B,-0.01108,0.00211,-2.19827,-0.01598,0.01385,0.01065,0.04310,0.05866,9.64265,-0.454365,0.001576,-0.005415,0.890798,79,30.562,10.084,101,15,33,15,0.00000,-0.00373,0.02713,6.8030,0.61018,0.60569,-0.03876,4.7498,-1.21323,-1.21685,-0.01820,7.5864,0.00000,-0.00081,0.01550,-2.4986,0.61018,0.60887,0.00000,1.1627,-1.21323,-1.21330,-0.03842,4.1251,0.00000,-0.00637,-0.13564,10.5632,0.61018,0.61031,-0.02325,0.0495,-1.21323,-1.21176,-0.02224,3.0820,0.00000,0.01221,-0.15502,-16.4757,0.61018,0.61174,-0.06588,-1.7812,-1.21323,-1.21315,0.00000,4.8837
0.3400,B,-0.01106,0.00212,-2.19825,0.00959,0.01065,0.00213,0.04310,0.05866,9.64265,-0.454374,0.001567,-0.005407,0.890793,79,30.562,10.049,101,15,33,15,0.00000,-0.00376,-0.05426,6.8772,0.61018,0.60572,0.03876,4.7992,-1.21323,-1.21683,0.02022,7.6338,0.00000,-0.00081,0.04263,-2.4986,0.61018,0.60887,0.00000,1.2122,-1.21323,-1.21326,0.01618,4.2199,0.00000,-0.00625,0.06976,10.5138,0.61018,0.61034,-0.00775,-0.0742,-1.21323,-1.21175,0.01213,3.1294,0.00000,0.01224,-0.10851,-16.6736,0.61018,0.61186,0.12789,-2.1275,-1.21323,-1.21314,0.03437,4.8837
0.3440,B,-0.01105,0.00211,-2.19824,-0.01385,0.00533,0.01065,-0.10056,0.01915,9.56244,-0.454377,0.001570,-0.005400,0.890792,79,30.562,10.152,101,15,33,15,0.00000,-0.00373,-0.00388,6.7041,0.61018,0.60572,-0.03100,4.8487,-1.21323,-1.21685,-0.01011,7.4916,0.00000,-0.00078,0.09301,-2.4986,0.61018,0.60890,0.01163,1.2122,-1.21323,-1.21328,-0.01213,4.0777,0.00000,-0.00631,-0.03488,10.6127,0.61018,0.61034,0.00775,-0.0742,-1.21323,-1.21173,0.04853,3.2242,0.00000,0.01227,-0.06201,-16.3273,0.61018,0.61180,-0.05426,-1.9048,-1.21323,-1.21315,0.00202,4.9786
0.3460,B,-0.01104,0.00210,-2.19820,-0.01491,-0.01065,0.02344,-0.10056,0.01915,9.56244,-0.454397,0.001570,-0.005393,0.890782,79,30.562,10.084,101,15,33,15,0.00000,-0.00370,0.05813,6.8278,0.61018,0.60578,0.03100,4.7003,-1.21323,-1.21685,-0.02022,7.6338,0.00000,-0.00087,-0.06201,-2.3501,0.61018,0.60893,0.06201,1.0390,-1.21323,-1.21326,0.00809,4.0777,0.00000,-0.00625,0.04263,10.6127,0.61018,0.61034,0.00000,0.0000,-1.21323,-1.21175,0.06470,3.1294,0.00000,0.01231,0.00775,-16.2778,0.61018,0.61186,0.02713,-2.1275,-1.21323,-1.21315,0.00202,4.8837
0.3480,B,-0.01103,0.00209,-2.19818,-0.01385,0.00320,0.00533,-0.10056,0.01915,9.56244,-0.454406,0.001574,-0.005390,0.890777,79,30.562,10.118,101,15,33,15,0.00000,-0.00373,0.01163,6.7536,0.61018,0.60578,-0.03488,4.6755,-1.21323,-1.21683,0.01820,7.5864,0.00000,-0.00081,-0.01163,-2.4491,0.61018,0.60896,0.05038,0.9895,-1.21323,-1.21328,-0.04853,4.0303,0.00000,-0.00628,-0.02325,10.5385,0.61018,0.61034,0.02713,0.1237,-1.21323,-1.21173,0.04246,3.2242,0.00000,0.01234,0.07751,-16.5252,0.61018,0.61186,0.02713,-1.8306,-1.21323,-1.21317,-0.03033,4.8837
0.3500,B,-0.01104,0.00211,-2.19815,-0.01065,0.02131,0.01491,-0.02394,0.05866,9.64025,-0.454418,0.001567,-0.005396,0.890771,79,30.562,9.981,101,15,33,15,0.00000,-0.00373,0.01550,6.7536,0.61018,0.60584,0.04263,4.5024,-1.21323,-1.21683,0.01011,7.6812,0.00000,-0.00084,0.00000,-2.3996,0.61018,0.60896,0.09689,1.1874,-1.21323,-1.21328,-0.01820,4.1251,0.00000,-0.00631,-0.11239,10.5138,0.61018,0.61031,-0.06976,-0.0495,-1.21323,-1.21175,0.00607,3.2242,0.00000,0.01224,-0.10464,-16.3767,0.61018,0.61189,0.03876,-2.1522,-1.21323,-1.21315,-0.00202,4.8837
0.3520,B,-0.01104,0.00213,-2.19814,-0.01917,0.01278,0.00959,-0.02394,0.05866,9.64025,-0.454424,0.001562,-0.005402,0.890768,79,30.562,10.084,101,15,32,15,0.00000,-0.00376,-0.04651,6.8030,0.61018,0.60581,-0.06201,4.5766,-1.21323,-1.21683,0.02022,7.5864,0.00000,-0.00078,0.09301,-2.5233,0.61018,0.60899,0.08139,0.9895,-1.21323,-1.21328,-0.02426,4.0777,0.00000,-0.00625,0.01938,10.5632,0.61018,0.61034,-0.00388,-0.0742,-1.21323,-1.21175,0.00000,3.2242,0.00000,0.01221,-0.16277,-16.3767,0.61018,0.61189,0.03100,-1.9296,-1.21323,-1.21317,-0.03235,4.8837
0.3540,B,-0.01103,0.00214,-2.19814,0.00107,0.00746,-0.00107,-0.16041,0.02514,9.38407,-0.454423,0.001552,-0.005397,0.890768,79,30.562,10.049,101,15,32,15,0.00000,-0.00373,0.07363,6.7041,0.61018,0.60587,0.00000,4.6013,-1.21323,-1.21682,-0.01618,7.6338,0.00000,-0.00084,-0.00388,-2.2512,0.61018,0.60893,-0.01163,1.1627,-1.21323,-1.21326,0.01011,4.1251,0.00000,-0.00625,-0.02713,10.4396,0.61018,0.61034,0.00000,-0.0247,-1.21323,-1.21176,-0.03033,3.0820,0.00000,0.01234,0.06201,-16.5499,0.61018,0.61195,0.10851,-2.0780,-1.21323,-1.21317,-0.03235,4.8837
0.3560,B,-0.01102,0.00215,-2.19811,-0.01491,0.01491,0.01598,-0.16041,0.02514,9.38407,-0.454436,0.001549,-0.005396,0.890762,79,30.562,9.947,101,15,32,15,0.00000,-0.00373,0.01938,6.7783,0.61018,0.60590,0.00000,4.6261,-1.21323,-1.21685,-0.01213,7.4916,0.00000,-0.00081,0.01550,-2.5480,0.61018,0.60902,0.06588,0.9895,-1.21323,-1.21330,-0.04448,4.0777,0.00000,-0.00622,0.05426,10.5385,0.61018,0.61034,0.00388,0.0000,-1.21323,-1.21175,-0.01011,3.1294,0.00000,0.01218,-0.17440,-16.2531,0.61018,0.61189,-0.05038,-1.9791,-1.21323,-1.21317,-0.03235,4.8363
0.3580,B,-0.01102,0.00213,-2.19809,-0.00639,-0.00852,0.00852,-0.16041,0.02514,9.38407,-0.454443,0.001552,-0.005392,0.890758,79,30.562,10.118,101,15,32,14,0.00000,-0.00376,-0.02325,6.8772,0.61018,0.60599,-0.05038,4.4282,-1.21323,-1.21685,-0.01820,7.4916,0.00000,-0.00084,-0.00388,-2.3254,0.61018,0.60905,0.05813,0.7916,-1.21323,-1.21328,-0.02022,4.1251,0.00000,-0.00622,0.03100,10.5632,0.61018,0.61031,-0.04651,0.0495,-1.21323,-1.21175,0.00404,3.1294,0.00000,0.01227,-0.03876,-16.4510,0.61018,0.61195,0.03876,-2.0780,-1.21323,-1.21317,-0.03033,4.8837
0.3600,B,-0.01104,0.00217,-2.19807,-0.02876,0.02876,0.00959,-0.20111,0.01077,9.31584,-0.454453,0.001543,-0.005410,0.890753,79,30.562,10.084,101,15,32,14,0.00000,-0.00373,0.02325,6.9020,0.61018,0.60599,0.00000,4.4282,-1.21323,-1.21683,0.02224,7.5864,0.00000,-0.00081,0.01550,-2.4244,0.61018,0.60902,-0.03100,0.8906,-1.21323,-1.21326,0.01011,4.2199,0.00000,-0.00622,0.01938,10.5138,0.61018,0.61034,0.00000,0.0000,-1.21323,-1.21173,0.02022,3.2242,0.00000,0.01234,0.08914,-16.3520,0.61018,0.61198,0.06201,-2.1275,-1.21323,-1.21315,-0.01415,4.8363
0.3620,B,-0.01104,0.00220,-2.19807,-0.01598,0.00746,0.00107,-0.20111,0.01077,9.31584,-0.454455,0.001530,-0.005414,0.890752,79,30.562,9.981,101,15,32,14,0.00000,-0.00373,0.03488,6.8772,0.61018,0.60602,0.00388,4.4034,-1.21323,-1.21680,0.06875,7.5864,0.00000,-0.00081,0.01550,-2.3254,0.61018,0.60905,0.02713,1.0637,-1.21323,-1.21326,0.01618,4.2199,0.00000,-0.00625,-0.06976,10.5138,0.61018,0.61037,0.05426,-0.0495,-1.21323,-1.21173,0.03033,3.1294,0.00000,0.01224,-0.06201,-16.3520,0.61018,0.61198,-0.00388,-2.1275,-1.21323,-1.21314,0.02224,4.8837
0.3640,B,-0.01103,0.00221,-2.19807,-0.00426,0.01065,-0.00426,-0.24301,0.05148,9.36731,-0.454456,0.001521,-0.005417,0.890751,79,30.571,9.844,101,15,32,14,0.00000,-0.00373,0.01163,6.8278,0.61018,0.60602,-0.01550,4.4282,-1.21323,-1.21685,-0.02426,7.4916,0.00000,-0.00078,0.06976,-2.4244,0.61018,0.60908,0.01938,0.7916,-1.21323,-1.21328,-0.03235,4.0303,0.00000,-0.00622,-0.00388,10.5138,0.61018,0.61031,-0.00775,0.0000,-1.21323,-1.21173,0.02426,3.1294,0.00000,0.01231,0.03100,-16.6736,0.61018,0.61201,0.03876,-2.1028,-1.21323,-1.21315,-0.02629,4.8363
0.3660,B,-0.01101,0.00223,-2.19807,-0.01385,0.01385,0.00213,-0.24301,0.05148,9.36731,-0.454454,0.001510,-0.005409,0.890753,79,30.571,10.049,101,15,32,14,0.00000,-0.00376,0.00000,6.9020,0.61018,0.60611,0.03876,4.3787,-1.21323,-1.21682,-0.01213,7.5864,0.00000,-0.00081,0.01938,-2.3996,0.61018,0.60911,0.00000,0.9895,-1.21323,-1.21328,-0.04246,4.2199,0.00000,-0.00625,-0.07751,10.4643,0.61018,0.61034,-0.00388,-0.0742,-1.21323,-1.21173,0.02629,3.1294,0.00000,0.01234,0.12402,-16.4510,0.61018,0.61204,0.04651,-2.2264,-1.21323,-1.21314,0.01011,4.8363
0.3680,B,-0.01101,0.00225,-2.19808,-0.00746,0.01278,-0.00107,-0.24301,0.05148,9.36731,-0.454452,0.001500,-0.005414,0.890754,79,30.562,9.879,101,15,32,14,0.00000,-0.00373,0.04263,6.9020,0.61018,0.60611,0.01938,4.2797,-1.21323,-1.21683,0.01011,7.5864,0.00000,-0.00084,-0.03876,-2.4491,0.61018,0.60914,0.03488,0.7421,-1.21323,-1.21326,0.00809,4.1251,0.00000,-0.00616,0.06976,10.4396,0.61018,0.61034,0.01550,0.0247,-1.21323,-1.21175,0.00000,3.1294,0.00000,0.01224,-0.04263,-16.3520,0.61018,0.61207,0.03876,-2.1522,-1.21323,-1.21314,0.00000,4.8363
0.3700,B,-0.01102,0.00228,-2.19806,-0.01811,0.01917,-0.00107,-0.29329,0.04070,9.31464,-0.454458,0.001486,-0.005427,0.890750,79,30.562,9.947,101,15,32,14,0.00000,-0.00376,0.00388,6.9267,0.61018,0.60614,-0.02713,4.1808,-1.21323,-1.21682,0.04853,7.5864,0.00000,-0.00081,0.00388,-2.3501,0.61018,0.60911,-0.03876,0.8658,-1.21323,-1.21326,0.00000,4.0777,0.00000,-0.00622,0.04263,10.5138,0.61018,0.61037,-0.00388,-0.0247,-1.21323,-1.21173,0.02022,3.0820,0.00000,0.01218,-0.06976,-16.4510,0.61018,0.61210,0.02325,-2.3254,-1.21323,-1.21315,-0.02022,4.8837
0.3720,B,-0.01100,0.00232,-2.19805,0.00107,0.02024,0.00213,-0.29329,0.04070,9.31464,-0.454461,0.001464,-0.005427,0.890749,79,30.571,9.947,101,15,32,14,0.00000,-0.00376,-0.00388,6.9267,0.61018,0.60617,0.00000,4.3045,-1.21323,-1.21682,-0.02224,7.5864,0.00000,-0.00081,0.02713,-2.5233,0.61018,0.60920,0.07363,0.6679,-1.21323,-1.21328,-0.02224,4.0303,0.00000,-0.00622,-0.03488,10.5138,0.61018,0.61034,-0.02713,-0.0247,-1.21323,-1.21173,0.01820,3.0346,0.00000,0.01234,0.01938,-16.5746,0.61018,0.61213,0.06976,-2.3254,-1.21323,-1.21315,-0.03033,4.8837
0.3740,B,-0.01100,0.00232,-2.19805,-0.01704,-0.00746,0.00213,-0.33758,0.05267,9.34696,-0.454462,0.001465,-0.005427,0.890748,79,30.562,10.049,101,15,32,14,0.00000,-0.00376,0.01938,6.9762,0.61018,0.60614,-0.10464,4.1066,-1.21323,-1.21683,0.00809,7.4916,0.00000,-0.00081,0.00775,-2.5233,0.61018,0.60920,0.04263,0.8906,-1.21323,-1.21326,0.00000,4.1251,0.00000,-0.00622,0.01163,10.5632,0.61018,0.61031,-0.05813,-0.0742,-1.21323,-1.21173,0.02022,3.1294,0.00000,0.01221,-0.05813,-16.1046,0.61018,0.61210,-0.05426,-2.1028,-1.21323,-1.21314,-0.02831,4.8837
0.3760,B,-0.01100,0.00236,-2.19804,-0.01278,0.02237,-0.00107,-0.33758,0.05267,9.34696,-0.454470,0.001449,-0.005434,0.890745,79,30.562,9.947,101,15,32,15,0.00000,-0.00376,0.00000,6.9020,0.61018,0.60623,-0.00388,4.1808,-1.21323,-1.21685,0.01415,7.6338,0.00000,-0.00081,0.01938,-2.3254,0.61018,0.60923,0.07751,0.7669,-1.21323,-1.21330,-0.05459,4.0777,0.00000,-0.00622,-0.05426,10.5632,0.61018,0.61034,0.00000,0.0247,-1.21323,-1.21173,0.01820,3.1294,0.00000,0.01227,0.02713,-16.4510,0.61018,0.61216,0.03100,-2.4986,-1.21323,-1.21312,0.02831,4.7889
0.3780,B,-0.01101,0.00238,-2.19805,-0.02237,0.00639,-0.00852,-0.33758,0.05267,9.34696,-0.454462,0.001442,-0.005447,0.890749,79,30.562,10.015,101,15,32,15,0.00000,-0.00376,0.01163,6.9020,0.61018,0.60626,-0.01163,4.1560,-1.21323,-1.21683,0.00809,7.6338,0.00000,-0.00078,0.03876,-2.5233,0.61018,0.60920,-0.01938,0.8411,-1.21323,-1.21328,-0.01415,4.1251,0.00000,-0.00616,0.06588,10.4396,0.61018,0.61034,-0.00775,-0.1237,-1.21323,-1.21173,0.02224,3.1294,0.00000,0.01221,-0.06588,-16.3273,0.61018,0.61219,0.02713,-2.2264,-1.21323,-1.21314,0.00202,4.8837
0.3800,B,-0.01101,0.00239,-2.19807,-0.01491,-0.00426,-0.00959,-0.40223,0.10774,9.27274,-0.454456,0.001439,-0.005448,0.890751,79,30.571,9.981,101,15,32,15,0.00000,-0.00376,0.00000,6.9020,0.61018,0.60629,0.01938,4.0571,-1.21323,-1.21680,0.06268,7.6812,0.00000,-0.00078,0.08526,-2.3254,0.61018,0.60923,-0.04263,0.7421,-1.21323,-1.21328,-0.02224,4.0777,0.00000,-0.00619,0.03876,10.5385,0.61018,0.61028,-0.06976,0.0495,-1.21323,-1.21173,0.02022,3.0346,0.00000,0.01227,0.04651,-16.6241,0.61018,0.61222,0.02713,-2.3996,-1.21323,-1.21314,0.00809,4.8363
0.3820,B,-0.01104,0.00241,-2.19807,-0.02024,0.00746,-0.01172,-0.40223,0.10774,9.27274,-0.454454,0.001438,-0.005466,0.890752,79,30.562,9.879,101,15,31,15,0.00000,-0.00376,0.01163,6.9267,0.61018,0.60629,-0.03100,3.9829,-1.21323,-1.21683,0.00404,7.6812,0.00000,-0.00078,0.04263,-2.6223,0.61018,0.60929,0.03876,0.6679,-1.21323,-1.21328,-0.01618,4.1251,0.00000,-0.00622,-0.06976,10.6127,0.61018,0.61034,0.03488,-0.0247,-1.21323,-1.21173,0.01618,3.0346,0.00000,0.01224,-0.01550,-16.0551,0.61018,0.61222,0.03876,-2.3254,-1.21323,-1.21315,-0.03235,4.8363
0.3840,B,-0.01105,0.00243,-2.19809,-0.02237,0.00426,-0.01598,-0.42737,0.04429,9.43675,-0.454445,0.001426,-0.005474,0.890757,79,30.571,9.947,101,15,31,15,0.00000,-0.00376,0.02325,6.7783,0.61018,0.60632,-0.01550,4.2055,-1.21323,-1.21685,-0.02022,7.6338,0.00000,-0.00075,0.06201,-2.5480,0.61018,0.60932,0.04651,0.6432,-1.21323,-1.21326,0.01618,4.1251,0.00000,-0.00616,0.01163,10.5385,0.61018,0.61034,-0.03488,0.0000,-1.21323,-1.21173,0.02022,3.1294,0.00000,0.01218,0.03488,-16.4262,0.61018,0.61231,0.12789,-2.5480,-1.21323,-1.21314,-0.00607,4.7889
0.3860,B,-0.01105,0.00245,-2.19809,-0.01704,0.01385,-0.00533,-0.42737,0.04429,9.43675,-0.454444,0.001420,-0.005479,0.890757,79,30.571,10.015,101,15,31,15,0.00000,-0.00376,0.03100,6.9267,0.61018,0.60638,0.00388,4.0076,-1.21323,-1.21683,0.00000,7.6338,0.00000,-0.00078,0.05038,-2.3254,0.61018,0.60935,0.07751,0.6432,-1.21323,-1.21328,-0.01213,4.1251,0.00000,-0.00616,0.01163,10.5385,0.61018,0.61034,0.00388,0.0247,-1.21323,-1.21175,-0.00404,3.0820,0.00000,0.01221,-0.04651,-16.2778,0.61018,0.61225,0.00000,-2.3501,-1.21323,-1.21314,-0.00607,4.7889
0.3880,B,-0.01104,0.00244,-2.19809,-0.01917,-0.00639,-0.00320,-0.42737,0.04429,9.43675,-0.454444,0.001423,-0.005473,0.890757,79,30.571,9.981,101,15,31,15,0.00000,-0.00382,-0.04651,6.8772,0.61018,0.60638,-0.03100,3.8839,-1.21323,-1.21683,0.02022,7.6812,0.00000,-0.00075,0.08139,-2.4986,0.61018,0.60932,-0.01550,0.6679,-1.21323,-1.21326,0.01011,4.1251,0.00000,-0.00622,-0.10076,10.3901,0.61018,0.61031,-0.05813,-0.0495,-1.21323,-1.21175,0.00000,3.0820,0.00000,0.01218,-0.10076,-16.3520,0.61018,0.61231,0.01550,-2.4986,-1.21323,-1.21314,0.00809,4.8837
0.3900,B,-0.01105,0.00246,-2.19809,-0.01598,0.00639,-0.00107,-0.47764,0.02514,9.37210,-0.454447,0.001416,-0.005478,0.890756,79,30.562,9.947,101,15,31,15,0.00000,-0.00379,0.00775,6.9267,0.61018,0.60644,0.01163,4.1066,-1.21323,-1.21682,0.04853,7.4916,0.00000,-0.00078,0.04651,-2.4491,0.61018,0.60935,0.03876,0.7669,-1.21323,-1.21328,-0.02022,4.1251,0.00000,-0.00619,-0.00388,10.4643,0.61018,0.61034,0.01938,0.0742,-1.21323,-1.21173,0.02224,3.0820,0.00000,0.01227,0.06588,-16.4757,0.61018,0.61231,0.04651,-2.4244,-1.21323,-1.21314,0.00000,4.8363
0.3920,B,-0.01105,0.00247,-2.19808,-0.01172,0.00852,-0.00639,-0.47764,0.02514,9.37210,-0.454450,0.001408,-0.005482,0.890754,79,30.562,9.981,101,15,31,15,0.00000,-0.00379,0.03100,6.7783,0.61018,0.60647,0.04263,3.9829,-1.21323,-1.21685,-0.02426,7.6338,0.00000,-0.00078,0.01938,-2.4986,0.61018,0.60935,-0.01550,0.6432,-1.21323,-1.21328,-0.01618,4.2199,0.00000,-0.00619,-0.03100,10.2911,0.61018,0.61031,-0.03876,0.0247,-1.21323,-1.21172,0.04651,3.0346,0.00000,0.01224,-0.05426,-16.4510,0.61018,0.61228,-0.00775,-2.2512,-1.21323,-1.21314,0.00809,4.9786
0.3940,B,-0.01106,0.00251,-2.19807,-0.00533,0.01491,0.00000,-0.52313,0.04310,9.53251,-0.454455,0.001393,-0.005496,0.890752,79,30.562,10.049,101,15,31,15,0.00000,-0.00382,0.00000,7.0009,0.61018,0.60650,0.05426,3.9829,-1.21323,-1.21682,0.04853,7.6812,0.00000,-0.00078,0.02713,-2.4986,0.61018,0.60941,0.06588,0.5442,-1.21323,-1.21328,-0.02022,4.2199,0.00000,-0.00619,-0.02325,10.6127,0.61018,0.61034,0.01163,0.0247,-1.21323,-1.21173,0.01011,3.2242,0.00000,0.01224,-0.21315,-16.5746,0.61018,0.61237,0.07363,-2.4491,-1.21323,-1.21314,-0.01415,4.8837
0.3960,B,-0.01106,0.00252,-2.19805,-0.01278,-0.01065,0.00320,-0.52313,0.04310,9.53251,-0.454463,0.001392,-0.005500,0.890747,79,30.571,9.947,101,15,31,15,0.00000,-0.00382,0.02325,7.0999,0.61018,0.60647,-0.04651,3.9581,-1.21323,-1.21683,0.01820,7.6338,0.00000,-0.00078,0.02325,-2.5233,0.61018,0.60938,0.03100,0.6679,-1.21323,-1.21328,-0.01820,4.0777,0.00000,-0.00619,-0.01163,10.3406,0.61018,0.61034,-0.01938,0.0000,-1.21323,-1.21173,0.01618,3.0820,0.00000,0.01234,0.18215,-16.4757,0.61018,0.61240,0.10076,-2.4244,-1.21323,-1.21315,-0.02831,4.8837
0.3980,B,-0.01106,0.00250,-2.19803,-0.01385,-0.01385,0.00852,-0.52313,0.04310,9.53251,-0.454471,0.001398,-0.005494,0.890744,79,30.562,9.947,101,15,31,15,0.00000,-0.00382,0.00775,6.8030,0.61018,0.60647,-0.10851,3.8839,-1.21323,-1.21682,0.03842,7.4916,0.00000,-0.00081,-0.01938,-2.4244,0.61018,0.60947,0.09689,0.5195,-1.21323,-1.21326,0.01415,4.1251,0.00000,-0.00619,-0.05038,10.4148,0.61018,0.61037,0.02325,0.0000,-1.21323,-1.21175,-0.01011,3.1294,0.00000,0.01218,-0.11239,-16.3273,0.61018,0.61237,0.01550,-2.6470,-1.21323,-1.21312,0.02629,4.8363
0.4000,B,-0.01109,0.00252,-2.19802,-0.02876,0.00320,0.00639,-0.45729,0.03950,9.53371,-0.454478,0.001398,-0.005510,0.890740,79,30.562,9.947,101,15,30,15,0.00000,-0.00382,0.06976,7.0751,0.61018,0.60656,-0.04263,3.8839,-1.21323,-1.21683,0.00000,7.6812,0.00000,-0.00075,0.07751,-2.5233,0.61018,0.60941,0.03876,0.6432,-1.21323,-1.21330,-0.03033,4.2199,0.00000,-0.00619,-0.04651,10.4148,0.61018,0.61037,0.01163,0.0000,-1.21323,-1.21172,0.04651,3.0346,0.00000,0.01224,0.02713,-16.5252,0.61018,0.61237,-0.01938,-2.4491,-1.21323,-1.21312,0.02629,4.8837
0.4020,B,-0.01109,0.00255,-2.19799,-0.01385,0.00959,0.00533,-0.45729,0.03950,9.53371,-0.454490,0.001384,-0.005517,0.890734,79,30.562,9.913,101,15,30,15,0.00000,-0.00385,-0.01163,6.8278,0.61018,0.60659,0.05426,3.9581,-1.21323,-1.21683,0.00809,7.5864,0.00000,-0.00078,0.03100,-2.5233,0.61018,0.60947,0.07751,0.5442,-1.21323,-1.21328,-0.02224,4.1251,0.00000,-0.00616,0.02325,10.4643,0.61018,0.61031,-0.05038,0.0000,-1.21323,-1.21173,0.00607,3.0820,0.00000,0.01224,0.01550,-16.3767,0.61018,0.61240,0.04263,-2.4986,-1.21323,-1.21314,-0.01415,4.8363
0.4040,B,-0.01112,0.00258,-2.19794,-0.01278,-0.00107,0.01811,-0.53750,0.01197,9.62828,-0.454514,0.001377,-0.005539,0.890721,79,30.571,9.947,101,15,30,15,0.00000,-0.00388,-0.02325,6.9267,0.61018,0.60659,-0.04263,3.8097,-1.21323,-1.21683,0.01213,7.6812,0.00000,-0.00078,0.01938,-2.4491,0.61018,0.60947,0.03488,0.5195,-1.21323,-1.21326,0.01618,4.0777,0.00000,-0.00616,0.01938,10.4148,0.61018,0.61034,-0.02713,-0.0495,-1.21323,-1.21175,-0.01618,3.1294,0.00000,0.01227,0.11239,-16.4510,0.61018,0.61246,0.08139,-2.7212,-1.21323,-1.21314,-0.01618,4.8837
0.4080,B,-0.01115,0.00260,-2.19790,-0.02557,0.00320,0.01385,-0.53750,0.01197,9.62828,-0.454531,0.001375,-0.005557,0.890712,79,30.571,9.810,101,15,30,15,0.00000,-0.00391,-0.06201,7.0009,0.61018,0.60662,-0.01163,3.8097,-1.21323,-1.21683,0.01213,7.5864,0.00000,-0.00078,0.01938,-2.4244,0.61018,0.60944,-0.03100,0.5195,-1.21323,-1.21328,-0.00809,4.1251,0.00000,-0.00619,-0.06201,10.4148,0.61018,0.61034,0.04263,0.0000,-1.21323,-1.21173,0.00404,3.0346,0.00000,0.01221,-0.03876,-16.1788,0.61018,0.61243,-0.02325,-2.3996,-1.21323,-1.21314,-0.00809,4.8837
0.4100,B,-0.01116,0.00261,-2.19785,-0.02770,0.00000,0.01917,-0.45969,-0.00718,9.59237,-0.454551,0.001374,-0.005565,0.890702,79,30.571,9.913,101,15,30,15,0.00000,-0.00388,0.01163,7.0257,0.61018,0.60666,-0.02713,3.7107,-1.21323,-1.21683,0.01213,7.6338,0.00000,-0.00078,0.00388,-2.5233,0.61018,0.60950,0.05813,0.4700,-1.21323,-1.21330,-0.03437,4.1251,0.00000,-0.00622,-0.09301,10.4396,0.61018,0.61031,-0.08139,-0.0495,-1.21323,-1.21170,0.05459,3.1294,0.00000,0.01212,-0.17440,-16.3767,0.61018,0.61249,0.09301,-2.6717,-1.21323,-1.21314,-0.00607,4.7889
0.4120,B,-0.01119,0.00268,-2.19782,-0.02024,0.02237,0.00852,-0.45969,-0.00718,9.59237,-0.454566,0.001351,-0.005591,0.890694,79,30.562,9.981,101,15,30,15,0.00000,-0.00391,-0.02325,7.0257,0.61018,0.60669,0.01163,3.8097,-1.21323,-1.21683,0.01213,7.6812,0.00000,-0.00078,0.03876,-2.4244,0.61018,0.60953,0.10464,0.5195,-1.21323,-1.21328,-0.00809,4.1251,0.00000,-0.00613,0.04651,10.3901,0.61018,0.61031,-0.06976,0.0247,-1.21323,-1.21172,0.02224,3.1294,0.00000,0.01218,-0.08914,-16.1788,0.61018,0.61252,0.02713,-2.8449,-1.21323,-1.21314,-0.01011,4.8837
0.4140,B,-0.01120,0.00269,-2.19778,-0.02450,0.00852,0.01491,-0.50877,-0.05507,9.44393,-0.454585,0.001347,-0.005602,0.890685,79,30.562,9.879,101,15,30,15,0.00000,-0.00385,0.09301,7.0009,0.61018,0.60669,-0.03488,3.7602,-1.21323,-1.21685,-0.01820,7.6338,0.00000,-0.00075,0.08526,-2.4491,0.61018,0.60950,0.02713,0.4700,-1.21323,-1.21328,-0.01213,4.0777,0.00000,-0.00619,-0.07363,10.4396,0.61018,0.61034,-0.05426,-0.0495,-1.21323,-1.21172,0.02426,3.0820,0.00000,0.01221,-0.01550,-16.1046,0.61018,0.61249,0.07363,-2.4244,-1.21323,-1.21312,0.01618,4.8837
0.4160,B,-0.01124,0.00271,-2.19774,-0.01598,0.00533,0.01172,-0.50877,-0.05507,9.44393,-0.454601,0.001348,-0.005621,0.890676,79,30.562,9.981,101,15,30,15,0.00000,-0.00388,0.05426,7.0751,0.61018,0.60672,-0.00775,3.7107,-1.21323,-1.21683,-0.00202,7.6338,0.00000,-0.00078,0.03876,-2.4244,0.61018,0.60950,0.02713,0.5937,-1.21323,-1.21328,0.00000,4.2199,0.00000,-0.00616,0.01550,10.5138,0.61018,0.61034,-0.03100,0.0495,-1.21323,-1.21172,0.02022,3.0346,0.00000,0.01221,0.04263,-16.4510,0.61018,0.61252,0.00775,-2.6717,-1.21323,-1.21314,-0.01618,4.8363
0.4180,B,-0.01126,0.00273,-2.19771,-0.02770,0.01065,0.00746,-0.50877,-0.05507,9.44393,-0.454615,0.001342,-0.005635,0.890669,79,30.571,9.844,101,15,30,15,0.00000,-0.00391,0.00775,7.0257,0.61018,0.60672,-0.03100,3.6365,-1.21323,-1.21685,-0.03437,7.4916,0.00000,-0.00078,0.03876,-2.4491,0.61018,0.60953,0.03876,0.4453,-1.21323,-1.21328,-0.00607,4.1251,0.00000,-0.00610,0.04651,10.3406,0.61018,0.61037,0.01938,-0.0495,-1.21323,-1.21173,-0.00809,3.0346,0.00000,0.01221,0.00388,-16.5746,0.61018,0.61252,0.08914,-2.6470,-1.21323,-1.21315,-0.04044,4.8837
0.4200,B,-0.01128,0.00276,-2.19767,-0.01172,0.00639,0.01704,-0.48961,-0.14126,9.56723,-0.454631,0.001335,-0.005652,0.890661,79,30.571,9.947,101,15,30,15,0.00000,-0.00394,-0.03488,7.0257,0.61018,0.60675,-0.01163,3.6860,-1.21323,-1.21682,0.02629,7.6338,0.00000,-0.00081,0.00775,-2.4244,0.61018,0.60950,-0.03488,0.4453,-1.21323,-1.21330,-0.04853,4.2199,0.00000,-0.00616,-0.01163,10.3159,0.61018,0.61034,-0.05426,-0.0742,-1.21323,-1.21172,0.03033,3.0820,0.00000,0.01224,0.05038,-16.4510,0.61018,0.61258,0.12014,-2.6717,-1.21323,-1.21314,-0.02022,4.9786
0.4220,B,-0.01131,0.00278,-2.19761,0.00320,-0.00320,0.01385,-0.47525,-0.11372,9.39006,-0.454661,0.001332,-0.005668,0.890646,79,30.562,9.981,101,15,30,15,0.00000,-0.00391,0.06201,7.0999,0.61018,0.60678,-0.02713,3.5871,-1.21323,-1.21683,-0.00404,7.5864,0.00000,-0.00078,0.00388,-2.2512,0.61018,0.60950,-0.01938,0.4206,-1.21323,-1.21330,-0.03842,4.0777,0.00000,-0.00616,-0.06201,10.3159,0.61018,0.61034,-0.05038,-0.0742,-1.21323,-1.21172,0.00404,3.1294,0.00000,0.01212,-0.17827,-16.4757,0.61018,0.61255,0.03876,-2.6717,-1.21323,-1.21314,-0.02022,4.9786
0.4260,B,-0.01133,0.00278,-2.19757,-0.03196,-0.00320,0.01172,-0.47525,-0.11372,9.39006,-0.454678,0.001339,-0.005676,0.890637,79,30.571,9.913,101,15,30,15,0.00000,-0.00397,-0.05426,7.0257,0.61018,0.60681,0.00000,3.7107,-1.21323,-1.21682,0.03235,7.5864,0.00000,-0.00081,-0.01550,-2.5233,0.61018,0.60956,0.08139,0.5442,-1.21323,-1.21328,-0.00607,4.1251,0.00000,-0.00613,-0.00775,10.3901,0.61018,0.61034,-0.03876,0.0247,-1.21323,-1.21172,0.01618,3.0346,0.00000,0.01221,0.00775,-16.1788,0.61018,0.61252,-0.02325,-2.6470,-1.21323,-1.21314,0.00809,4.8837
0.4280,B,-0.01133,0.00280,-2.19752,-0.00107,0.00852,0.02131,-0.47525,-0.11372,9.39006,-0.454703,0.001327,-0.005683,0.890624,79,30.571,9.913,101,15,30,15,0.00000,-0.00397,-0.02713,7.1988,0.61018,0.60681,-0.00388,3.6613,-1.21323,-1.21683,-0.01011,7.5864,0.00000,-0.00081,-0.00775,-2.3254,0.61018,0.60953,0.02713,0.4453,-1.21323,-1.21328,-0.00202,4.1251,0.00000,-0.00610,0.04263,10.3159,0.61018,0.61037,0.03488,-0.0247,-1.21323,-1.21170,0.01415,3.1294,0.00000,0.01221,0.00388,-16.4510,0.61018,0.61255,0.04651,-2.5480,-1.21323,-1.21314,-0.01415,4.8837
0.4300,B,-0.01137,0.00283,-2.19748,-0.02663,0.00213,0.01065,-0.56862,-0.19154,9.33739,-0.454716,0.001325,-0.005704,0.890617,79,30.571,9.947,101,15,30,15,0.00000,-0.00394,0.03488,7.0257,0.61018,0.60681,0.00388,3.6860,-1.21323,-1.21683,0.00404,7.6812,0.00000,-0.00081,0.01938,-2.3501,0.61018,0.60959,0.04263,0.3711,-1.21323,-1.21330,-0.03640,4.2199,0.00000,-0.00613,0.07751,10.2416,0.61018,0.61034,-0.01938,-0.0495,-1.21323,-1.21172,0.01415,3.0346,0.00000,0.01215,-0.12402,-16.3520,0.61018,0.61252,-0.01550,-2.5480,-1.21323,-1.21312,0.00000,4.8363
0.4320,B,-0.01137,0.00284,-2.19745,-0.01065,0.00746,0.01491,-0.56862,-0.19154,9.33739,-0.454730,0.001319,-0.005710,0.890610,79,30.571,9.913,101,15,30,15,0.00000,-0.00397,-0.01938,7.1741,0.61018,0.60684,0.00000,3.5623,-1.21323,-1.21683,-0.01011,7.5864,0.00000,-0.00081,0.03488,-2.3254,0.61018,0.60959,0.11239,0.5442,-1.21323,-1.21328,0.02426,4.2199,0.00000,-0.00610,0.01163,10.3901,0.61018,0.61037,0.00000,-0.0495,-1.21323,-1.21170,0.03640,3.2716,0.00000,0.01218,-0.03876,-16.2778,0.61018,0.61261,0.11239,-2.6717,-1.21323,-1.21312,-0.00202,4.8837
0.4340,B,-0.01142,0.00290,-2.19738,-0.01491,0.00959,0.02663,-0.49321,-0.21787,9.41520,-0.454765,0.001306,-0.005742,0.890592,79,30.571,9.913,101,15,30,15,0.00000,-0.00400,-0.03488,7.1741,0.61018,0.60684,0.02325,3.7850,-1.21323,-1.21683,-0.01011,7.5864,0.00000,-0.00081,0.03876,-2.4986,0.61018,0.60956,0.03876,0.5442,-1.21323,-1.21330,-0.02831,4.2199,0.00000,-0.00613,-0.05426,10.2169,0.61018,0.61034,-0.01938,-0.0247,-1.21323,-1.21172,0.00000,3.1294,0.00000,0.01218,-0.03876,-16.3520,0.61018,0.61255,0.01163,-2.6470,-1.21323,-1.21314,-0.01820,4.8837
0.4360,B,-0.01143,0.00291,-2.19737,-0.02131,0.01065,0.00320,-0.49321,-0.21787,9.41520,-0.454767,0.001302,-0.005751,0.890591,79,30.562,9.947,101,15,29,15,0.00000,-0.00394,0.05426,6.9762,0.61018,0.60687,0.01163,3.4881,-1.21323,-1.21683,-0.01011,7.5864,0.00000,-0.00081,0.03876,-2.3996,0.61018,0.60953,0.00000,0.5937,-1.21323,-1.21330,-0.02831,4.2199,0.00000,-0.00613,-0.05426,10.2169,0.61018,0.61034,-0.03100,-0.0247,-1.21323,-1.21172,0.00000,3.1294,0.00000,0.01215,-0.10076,-16.4510,0.61018,0.61255,0.01938,-2.6470,-1.21323,-1.21312,0.00202,4.8363
0.4380,B,-0.01144,0.00294,-2.19734,-0.01598,0.01917,0.00639,-0.49321,-0.21787,9.41520,-0.454779,0.001294,-0.005765,0.890585,79,30.571,10.049,101,15,29,15,0.00000,-0.00397,0.02713,7.0999,0.61018,0.60684,-0.02325,3.6613,-1.21323,-1.21683,-0.01820,7.6338,0.00000,-0.00081,0.04263,-2.4491,0.61018,0.60953,-0.01938,0.4453,-1.21323,-1.21330,0.00404,4.2674,0.00000,-0.00610,0.01550,10.4643,0.61018,0.61037,0.01938,-0.0495,-1.21323,-1.21172,-0.00809,3.0820,0.00000,0.01221,0.00388,-16.5252,0.61018,0.61255,-0.01938,-2.7459,-1.21323,-1.21312,0.00404,4.8837
0.4400,B,-0.01148,0.00296,-2.19734,-0.02024,-0.00320,-0.00107,-0.55186,-0.17119,9.26197,-0.454781,0.001292,-0.005783,0.890583,79,30.562,9.844,101,15,29,15,0.00000,-0.00394,0.09301,7.0751,0.61018,0.60684,-0.03100,3.6613,-1.21323,-1.21682,0.01618,7.5864,0.00000,-0.00084,-0.01550,-2.4244,0.61018,0.60956,0.02713,0.4700,-1.21323,-1.21328,0.00000,4.1251,0.00000,-0.00607,0.05038,10.3159,0.61018,0.61037,-0.01938,-0.1484,-1.21323,-1.21172,-0.00607,3.0346,0.00000,0.01224,0.06588,-16.4757,0.61018,0.61255,0.00775,-2.4986,-1.21323,-1.21314,-0.02629,4.8837
0.4420,B,-0.01149,0.00297,-2.19732,-0.01917,0.00639,-0.00107,-0.55186,-0.17119,9.26197,-0.454789,0.001292,-0.005792,0.890580,79,30.562,9.981,101,15,29,15,0.00000,-0.00397,0.04651,7.1246,0.61018,0.60684,-0.05426,3.5623,-1.21323,-1.21683,-0.02022,7.5864,0.00000,-0.00084,-0.01938,-2.3996,0.61018,0.60956,0.04263,0.5195,-1.21323,-1.21330,-0.02629,4.1251,0.00000,-0.00613,-0.03876,10.4396,0.61018,0.61034,-0.06201,0.0247,-1.21323,-1.21170,0.02022,3.1294,0.00000,0.01212,-0.14727,-16.3273,0.61018,0.61258,0.03488,-2.7707,-1.21323,-1.21312,0.01011,4.8837
0.4440,B,-0.01151,0.00298,-2.19731,-0.01598,-0.00426,0.00746,-0.51356,-0.26815,9.39844,-0.454794,0.001290,-0.005804,0.890577,79,30.562,9.844,101,15,29,15,0.00000,-0.00400,0.00000,7.1246,0.61018,0.60684,-0.05038,3.6613,-1.21323,-1.21683,-0.01011,7.6338,0.00000,-0.00084,0.02325,-2.3254,0.61018,0.60953,-0.01938,0.4206,-1.21323,-1.21330,-0.02831,4.1251,0.00000,-0.00607,0.05426,10.4396,0.61018,0.61034,-0.03876,0.0000,-1.21323,-1.21172,-0.01011,3.0346,0.00000,0.01212,-0.16665,-16.3520,0.61018,0.61258,0.03876,-2.6223,-1.21323,-1.21312,0.00000,4.8363
0.4460,B,-0.01155,0.00303,-2.19729,-0.02344,0.01385,0.00852,-0.51356,-0.26815,9.39844,-0.454805,0.001275,-0.005831,0.890571,79,30.571,9.913,101,15,29,15,0.00000,-0.00400,0.02325,7.1741,0.61018,0.60687,0.01550,3.9086,-1.21323,-1.21683,-0.01415,7.4916,0.00000,-0.00084,-0.01938,-2.5233,0.61018,0.60953,-0.02713,0.3463,-1.21323,-1.21328,-0.01213,4.0777,0.00000,-0.00610,0.00775,10.4396,0.61018,0.61034,-0.05038,-0.0247,-1.21323,-1.21170,0.02426,3.1294,0.00000,0.01218,-0.05813,-16.4262,0.61018,0.61252,-0.02713,-2.6470,-1.21323,-1.21314,-0.01820,4.8837
0.4480,B,-0.01157,0.00304,-2.19729,-0.02450,-0.00320,0.00320,-0.51356,-0.26815,9.39844,-0.454805,0.001279,-0.005845,0.890571,79,30.562,9.810,101,15,29,15,0.00000,-0.00400,0.01550,7.0999,0.61018,0.60684,-0.05813,3.5623,-1.21323,-1.21683,-0.02426,7.6338,0.00000,-0.00084,0.00775,-2.3007,0.61018,0.60956,0.04263,0.5690,-1.21323,-1.21328,-0.01820,4.2199,0.00000,-0.00610,-0.03100,10.3901,0.61018,0.61031,-0.09301,0.0000,-1.21323,-1.21170,0.01618,3.0346,0.00000,0.01212,-0.15890,-16.5252,0.61018,0.61255,0.01550,-2.6470,-1.21323,-1.21314,-0.02022,4.8363
0.4500,B,-0.01159,0.00307,-2.19727,-0.01598,0.01491,0.00426,-0.62848,-0.26935,9.29788,-0.454812,0.001267,-0.005858,0.890567,79,30.562,9.947,101,15,29,15,0.00000,-0.00403,-0.00388,7.3473,0.61018,0.60684,-0.07363,3.6860,-1.21323,-1.21680,0.04651,7.5864,0.00000,-0.00081,0.05038,-2.4986,0.61018,0.60956,0.03488,0.4700,-1.21323,-1.21330,-0.03437,4.2199,0.00000,-0.00613,-0.01938,10.3901,0.61018,0.61034,0.00000,-0.0247,-1.21323,-1.21170,0.00404,3.0346,0.00000,0.01212,-0.14727,-16.3520,0.61018,0.61255,-0.00388,-2.7212,-1.21323,-1.21314,-0.02426,4.8837
0.4520,B,-0.01160,0.00309,-2.19727,-0.00959,0.00426,-0.00320,-0.62848,-0.26935,9.29788,-0.454811,0.001263,-0.005867,0.890568,79,30.571,9.879,101,15,29,15,0.00000,-0.00403,-0.01938,6.9267,0.61018,0.60687,-0.00388,3.5871,-1.21323,-1.21683,-0.01011,7.5864,0.00000,-0.00081,0.03876,-2.4491,0.61018,0.60953,-0.01163,0.5195,-1.21323,-1.21330,-0.01820,4.1251,0.00000,-0.00610,-0.02325,10.3159,0.61018,0.61034,-0.02713,-0.0495,-1.21323,-1.21170,0.02022,3.1294,0.00000,0.01224,0.06201,-16.4757,0.61018,0.61252,-0.05038,-2.6470,-1.21323,-1.21312,0.01011,4.8363
0.4540,B,-0.01163,0.00312,-2.19724,-0.02450,0.01491,0.00852,-0.56503,-0.28012,9.42118,-0.454824,0.001256,-0.005886,0.890561,79,30.571,9.981,101,15,29,15,0.00000,-0.00400,0.05813,7.2731,0.61018,0.60684,-0.08139,3.6860,-1.21323,-1.21682,0.01415,7.5864,0.00000,-0.00084,0.00000,-2.5233,0.61018,0.60956,0.05038,0.5195,-1.21323,-1.21330,-0.01820,4.0777,0.00000,-0.00610,0.00388,10.3901,0.61018,0.61031,-0.03876,0.0247,-1.21323,-1.21170,0.00809,3.0346,0.00000,0.01215,-0.09689,-16.1294,0.61018,0.61258,0.06976,-2.7212,-1.21323,-1.21312,0.01011,4.8363
