t_s,phase,roll,pitch,yaw,gyro_x,gyro_y,gyro_z,acc_x,acc_y,acc_z,quat_w,quat_x,quat_y,quat_z,imu_temp,power_v,power_a,foot0,foot1,foot2,foot3,FR_hip_cmd,FR_hip_q,FR_hip_dq,FR_hip_tau,FR_thigh_cmd,FR_thigh_q,FR_thigh_dq,FR_thigh_tau,FR_calf_cmd,FR_calf_q,FR_calf_dq,FR_calf_tau,FL_hip_cmd,FL_hip_q,FL_hip_dq,FL_hip_tau,FL_thigh_cmd,FL_thigh_q,FL_thigh_dq,FL_thigh_tau,FL_calf_cmd,FL_calf_q,FL_calf_dq,FL_calf_tau,RR_hip_cmd,RR_hip_q,RR_hip_dq,RR_hip_tau,RR_thigh_cmd,RR_thigh_q,RR_thigh_dq,RR_thigh_tau,RR_calf_cmd,RR_calf_q,RR_calf_dq,RR_calf_tau,RL_hip_cmd,RL_hip_q,RL_hip_dq,RL_hip_tau,RL_thigh_cmd,RL_thigh_q,RL_thigh_dq,RL_thigh_tau,RL_calf_cmd,RL_calf_q,RL_calf_dq,RL_calf_tau
0.0000,B,-0.01271,-0.00374,-2.23877,0.00852,0.02237,-0.02450,-0.25019,-0.06584,9.20930,-0.436216,0.004455,-0.004905,0.899818,79,30.297,18.014,101,15,31,15,0.00000,-0.00767,0.05038,7.7183,0.61018,0.61074,-0.39530,3.3644,-1.21323,-1.23195,0.82094,8.2028,0.00000,0.00416,-0.02325,-4.3787,0.61018,0.61326,-0.40693,1.3853,-1.21323,-1.22789,0.66929,5.2631,0.00000,-0.01682,0.08139,16.1294,0.61018,0.61516,-0.43793,-0.6432,-1.21323,-1.22698,0.77039,3.2242,0.00000,0.02233,-0.12789,-21.3739,0.61018,0.61637,-0.27904,-1.7069,-1.21323,-1.22906,0.89575,6.4484
0.0020,B,-0.01274,-0.00365,-2.23881,-0.01704,0.05220,-0.01598,-0.38068,-0.02634,9.30746,-0.436199,0.004421,-0.004933,0.899826,79,30.288,18.492,101,15,31,15,0.00000,-0.00764,0.05813,7.6936,0.61018,0.61017,-0.37593,3.4881,-1.21323,-1.23025,0.71984,8.7718,0.00000,0.00416,0.00000,-4.4034,0.61018,0.61207,-0.29842,0.8906,-1.21323,-1.22688,0.57425,6.0691,0.00000,-0.01663,0.07363,16.1541,0.61018,0.61464,-0.28291,-0.9895,-1.21323,-1.22459,0.83307,5.2631,0.00000,0.02208,-0.19765,-21.5718,0.61018,0.61495,-0.28679,-1.8306,-1.21323,-1.22754,0.84116,6.6855
0.0040,B,-0.01271,-0.00358,-2.23886,0.00959,0.03302,-0.03409,-0.38068,-0.02634,9.30746,-0.436174,0.004384,-0.004937,0.899838,79,30.288,18.082,101,15,31,15,0.00000,-0.00758,0.08526,7.5947,0.61018,0.60962,-0.30617,3.4881,-1.21323,-1.22784,0.67940,9.1037,0.00000,0.00409,0.00000,-4.2797,0.61018,0.61153,-0.36042,0.7669,-1.21323,-1.22461,0.79465,5.8320,0.00000,-0.01624,0.07751,16.1294,0.61018,0.61398,-0.47669,-0.9648,-1.21323,-1.22323,0.83105,3.8406,0.00000,0.02190,-0.14339,-21.6707,0.61018,0.61419,-0.40305,-1.0390,-1.21323,-1.22498,0.81285,6.2114
0.0060,B,-0.01278,-0.00350,-2.23891,-0.04368,0.03409,-0.02770,-0.39744,-0.05986,9.32422,-0.436152,0.004360,-0.004985,0.899849,79,30.119,24.577,101,15,30,15,0.00000,-0.00721,0.34880,8.8316,0.61018,0.60911,-0.37593,3.2902,-1.21323,-1.22628,0.95843,11.8063,0.00000,0.00406,0.00000,-4.2797,0.61018,0.61095,-0.37205,0.7669,-1.21323,-1.22292,1.05347,7.9657,0.00000,-0.01561,0.44956,17.9353,0.61018,0.61325,-0.46894,-0.9401,-1.21323,-1.22160,1.01101,7.2545,0.00000,0.02175,-0.16277,-21.4234,0.61018,0.61355,-0.31004,-1.7317,-1.21323,-1.22337,0.94226,9.3882
0.0100,B,-0.01294,-0.00329,-2.23900,-0.06179,0.05752,-0.01811,-0.39744,-0.05986,9.32422,-0.436114,0.004301,-0.005103,0.899867,79,30.208,20.407,101,15,30,15,0.00000,-0.00646,0.06588,8.9800,0.61018,0.60774,-0.30229,4.2797,-1.21323,-1.22284,1.00696,8.4399,0.00000,0.00297,-0.06201,-5.9867,0.61018,0.60986,-0.23641,1.4101,-1.21323,-1.21938,1.03527,4.6941,0.00000,-0.01415,0.21315,17.0694,0.61018,0.61240,-0.22090,-0.6679,-1.21323,-1.21800,1.05953,3.6510,0.00000,0.02012,-0.22478,-22.8087,0.61018,0.61264,-0.15502,-1.1874,-1.21323,-1.22002,1.05549,5.8795
0.0120,B,-0.01296,-0.00325,-2.23902,-0.03835,0.03835,-0.02237,-0.32920,-0.08978,10.31781,-0.436105,0.004288,-0.005125,0.899871,79,30.208,20.509,101,16,31,15,0.00000,-0.00612,0.25966,8.3368,0.61018,0.60735,-0.13952,4.6013,-1.21323,-1.22170,0.87351,8.0131,0.00000,0.00267,-0.14727,-4.9229,0.61018,0.60986,-0.23641,1.4101,-1.21323,-1.21829,0.78454,4.5044,0.00000,-0.01385,0.20928,17.0942,0.61018,0.61201,-0.22866,-0.3463,-1.21323,-1.21674,0.88160,3.5087,0.00000,0.01969,-0.26354,-23.0808,0.61018,0.61186,-0.32554,-0.6927,-1.21323,-1.21862,0.81083,5.6898
0.0140,B,-0.01301,-0.00310,-2.23906,-0.02237,0.04474,-0.03409,-0.32920,-0.08978,10.31781,-0.436085,0.004231,-0.005181,0.899881,79,30.261,18.903,101,16,31,16,0.00000,-0.00588,0.06588,8.2626,0.61018,0.60699,-0.12014,4.6755,-1.21323,-1.22053,0.59649,8.2502,0.00000,0.00243,-0.07363,-5.1208,0.61018,0.60911,-0.19765,1.8059,-1.21323,-1.21704,0.60458,4.8363,0.00000,-0.01346,0.10464,16.7973,0.61018,0.61122,-0.21315,-0.1484,-1.21323,-1.21462,0.44080,3.6035,0.00000,0.01918,-0.17827,-22.3634,0.61018,0.61165,-0.16277,-0.8658,-1.21323,-1.21765,0.60660,6.1165
0.0160,B,-0.01303,-0.00313,-2.23912,-0.01491,-0.03835,-0.02770,-0.14006,-0.21668,10.18134,-0.436061,0.004250,-0.005181,0.899892,79,30.261,18.697,101,15,31,16,0.00000,-0.00567,0.16277,8.0152,0.61018,0.60672,-0.09689,4.6261,-1.21323,-1.21916,0.33565,8.4399,0.00000,0.00219,-0.09301,-4.7250,0.61018,0.60890,-0.08914,1.9296,-1.21323,-1.21565,0.29521,5.0260,0.00000,-0.01321,0.08914,16.9705,0.61018,0.61107,-0.10076,-0.1237,-1.21323,-1.21397,0.34779,3.7932,0.00000,0.01885,-0.23641,-22.0913,0.61018,0.61140,-0.13177,-0.6679,-1.21323,-1.21685,0.43675,5.9743
0.0180,B,-0.01301,-0.00317,-2.23916,0.00959,-0.03835,-0.04368,-0.14006,-0.21668,10.18134,-0.436042,0.004262,-0.005164,0.899902,79,30.270,18.595,101,15,33,16,0.00000,-0.00546,0.12402,7.9657,0.61018,0.60656,-0.05813,4.4776,-1.21323,-1.21916,0.33565,8.4399,0.00000,0.00191,-0.15115,-4.4776,0.61018,0.60874,-0.06976,1.8059,-1.21323,-1.21565,0.29521,5.0260,0.00000,-0.01306,-0.00388,17.1684,0.61018,0.61086,-0.13952,0.0247,-1.21323,-1.21355,0.24264,3.6984,0.00000,0.01866,-0.06201,-22.2645,0.61018,0.61125,-0.06588,-0.7669,-1.21323,-1.21617,0.39834,6.0691
0.0200,B,-0.01300,-0.00316,-2.23919,0.00639,0.01065,-0.02770,-0.14006,-0.21668,10.18134,-0.436030,0.004254,-0.005159,0.899907,79,30.279,18.321,101,15,33,16,0.00000,-0.00531,0.13177,8.1389,0.61018,0.60641,-0.13177,4.5024,-1.21323,-1.21844,0.22040,8.2502,0.00000,0.00182,-0.05426,-4.7250,0.61018,0.60868,-0.07363,1.6080,-1.21323,-1.21533,0.17996,5.2157,0.00000,-0.01297,0.03488,16.9457,0.61018,0.61077,-0.10076,-0.0247,-1.21323,-1.21323,0.24062,3.6984,0.00000,0.01836,-0.20928,-21.7697,0.61018,0.61113,-0.08914,-0.7669,-1.21323,-1.21573,0.24871,5.8795
0.0220,B,-0.01298,-0.00326,-2.23931,0.00213,-0.04687,-0.03835,0.08859,-0.19872,7.49984,-0.435974,0.004296,-0.005130,0.899934,79,30.305,17.638,101,13,29,16,0.00000,-0.00509,0.10851,7.7431,0.61018,0.60629,-0.07363,4.5271,-1.21323,-1.21796,0.15569,7.8235,0.00000,0.00158,-0.05426,-4.6013,0.61018,0.60859,-0.04651,1.6822,-1.21323,-1.21480,0.04246,5.1208,0.00000,-0.01279,-0.02713,16.8715,0.61018,0.61071,-0.02325,-0.2721,-1.21323,-1.21282,0.12334,3.6984,0.00000,0.01797,-0.00775,-21.4728,0.61018,0.61107,0.00775,-0.8658,-1.21323,-1.21514,0.16581,6.0691
0.0240,B,-0.01301,-0.00333,-2.23936,-0.01278,-0.03409,-0.02663,0.08859,-0.19872,7.49984,-0.435950,0.004335,-0.005129,0.899946,79,30.323,16.783,101,13,29,16,0.00000,-0.00491,0.05038,7.5947,0.61018,0.60623,-0.06588,4.3787,-1.21323,-1.21766,0.18400,7.4442,0.00000,0.00152,-0.01938,-4.5024,0.61018,0.60859,-0.03876,1.4596,-1.21323,-1.21457,0.10514,4.6941,0.00000,-0.01258,0.12789,16.5252,0.61018,0.61071,0.00000,-0.2226,-1.21323,-1.21269,0.09099,3.7932,0.00000,0.01763,-0.19765,-21.1512,0.61018,0.61104,0.05038,-0.9648,-1.21323,-1.21495,0.12941,5.9743
0.0260,B,-0.01299,-0.00337,-2.23938,0.00746,-0.03302,-0.02237,0.08859,-0.19872,7.49984,-0.435941,0.004347,-0.005114,0.899950,79,30.350,16.236,101,13,29,13,0.00000,-0.00491,0.05038,7.5947,0.61018,0.60617,-0.05813,4.5024,-1.21323,-1.21766,0.18400,7.4442,0.00000,0.00143,-0.06588,-4.5271,0.61018,0.60859,0.00388,1.5090,-1.21323,-1.21457,0.10514,4.6941,0.00000,-0.01221,0.19378,15.5109,0.61018,0.61071,0.00000,-0.4206,-1.21323,-1.21262,0.05662,3.8406,0.00000,0.01736,-0.31779,-20.9038,0.61018,0.61104,0.01163,-1.1132,-1.21323,-1.21475,0.10312,5.8320
0.0280,B,-0.01295,-0.00346,-2.23943,0.04474,-0.04048,-0.02024,-0.00120,-0.27414,7.35259,-0.435920,0.004380,-0.005072,0.899960,79,30.403,14.391,101,13,29,13,0.00000,-0.00464,0.14339,7.3967,0.61018,0.60617,-0.03488,4.5271,-1.21323,-1.21709,0.21433,6.9700,0.00000,0.00122,-0.06976,-4.1560,0.61018,0.60856,-0.00775,1.4843,-1.21323,-1.21412,0.14154,4.2199,0.00000,-0.01106,0.42631,13.5071,0.61018,0.61071,0.00000,-0.5442,-1.21323,-1.21255,0.05662,3.7932,0.00000,0.01682,-0.16665,-19.9638,0.61018,0.61101,-0.02713,-1.0390,-1.21323,-1.21439,0.12536,5.5001
0.0320,B,-0.01280,-0.00351,-2.23948,0.06711,-0.00959,-0.02770,-0.00120,-0.27414,7.35259,-0.435896,0.004369,-0.004996,0.899973,79,30.456,13.297,101,14,28,11,0.00000,-0.00458,0.06976,7.4462,0.61018,0.60617,0.00000,4.4034,-1.21323,-1.21687,0.16176,6.6381,0.00000,0.00107,-0.04263,-4.0571,0.61018,0.60850,0.00775,1.5833,-1.21323,-1.21390,0.13547,3.9829,0.00000,-0.01028,0.41856,12.5176,0.61018,0.61071,-0.03876,-0.3711,-1.21323,-1.21252,0.02224,3.8880,0.00000,0.01621,-0.22478,-19.0485,0.61018,0.61104,0.05038,-0.8906,-1.21323,-1.21413,0.10919,5.2631
0.0340,B,-0.01259,-0.00351,-2.23955,0.12996,-0.00320,-0.04368,0.76974,-0.81523,7.70454,-0.435868,0.004323,-0.004898,0.899987,79,30.491,12.511,101,14,28,11,0.00000,-0.00455,-0.00388,7.5204,0.61018,0.60617,-0.05038,4.2055,-1.21323,-1.21657,0.15367,6.4959,0.00000,0.00082,-0.08914,-3.4386,0.61018,0.60844,0.00388,1.7069,-1.21323,-1.21361,0.14154,3.8406,0.00000,-0.00964,0.33717,12.0970,0.61018,0.61074,-0.03100,-0.5442,-1.21323,-1.21247,0.00809,3.8880,0.00000,0.01579,-0.24028,-18.7764,0.61018,0.61095,0.01163,-0.7916,-1.21323,-1.21391,0.10717,4.9786
0.0360,B,-0.01229,-0.00356,-2.23965,0.15766,-0.01917,-0.05326,0.76974,-0.81523,7.70454,-0.435823,0.004280,-0.004755,0.900009,79,30.509,11.929,101,14,29,11,0.00000,-0.00452,0.03876,7.6441,0.61018,0.60626,0.04263,4.1808,-1.21323,-1.21631,0.13143,6.2588,0.00000,0.00058,-0.15502,-3.4386,0.61018,0.60847,0.06201,1.6327,-1.21323,-1.21337,0.13750,3.5087,0.00000,-0.00904,0.35267,11.8496,0.61018,0.61074,-0.05813,-0.5442,-1.21323,-1.21246,0.02022,3.8406,0.00000,0.01524,-0.23253,-17.9847,0.61018,0.61098,0.04263,-1.2617,-1.21323,-1.21375,0.05662,4.8837
0.0380,B,-0.01151,-0.00378,-2.23993,0.17470,-0.05539,-0.07989,0.58778,-0.19632,5.35463,-0.435697,0.004209,-0.004356,0.900073,79,30.544,11.314,101,15,29,11,0.00000,-0.00452,-0.01163,7.5204,0.61018,0.60635,0.05426,4.0076,-1.21323,-1.21571,0.12739,5.9743,0.00000,0.00022,-0.09301,-2.9686,0.61018,0.60850,0.03876,1.5090,-1.21323,-1.21287,0.04651,3.2242,0.00000,-0.00852,0.07751,12.0970,0.61018,0.61077,-0.01938,-0.4700,-1.21323,-1.21244,-0.01011,3.8406,0.00000,0.01430,-0.38755,-17.5642,0.61018,0.61101,0.11239,-1.2122,-1.21323,-1.21339,0.07077,4.6941
0.0400,B,-0.01132,-0.00384,-2.24002,0.18962,-0.03835,-0.08629,0.58778,-0.19632,5.35463,-0.435657,0.004192,-0.004258,0.900093,79,30.544,11.280,101,15,29,11,0.00000,-0.00452,-0.01163,7.5204,0.61018,0.60635,0.00000,4.0818,-1.21323,-1.21560,0.12132,5.9743,0.00000,0.00010,-0.09689,-3.0675,0.61018,0.60859,0.06201,1.1627,-1.21323,-1.21287,0.04651,3.2242,0.00000,-0.00840,0.06588,12.2949,0.61018,0.61077,-0.01938,-0.4700,-1.21323,-1.21244,-0.01011,3.8406,0.00000,0.01409,-0.13952,-17.2178,0.61018,0.61101,0.11239,-1.2122,-1.21323,-1.21328,0.05459,4.6467
0.0420,B,-0.01105,-0.00389,-2.24019,0.10653,-0.00746,-0.07989,-0.24301,1.02951,4.88297,-0.435582,0.004155,-0.004127,0.900130,79,30.544,11.041,101,15,29,11,0.00000,-0.00449,0.03100,7.5947,0.61018,0.60635,-0.03876,4.0571,-1.21323,-1.21560,0.12132,5.9743,0.00000,0.00007,0.00388,-3.0181,0.61018,0.60865,0.06976,1.1627,-1.21323,-1.21274,0.05662,3.2242,0.00000,-0.00834,0.01938,12.1960,0.61018,0.61089,0.02713,-0.7916,-1.21323,-1.21243,0.01011,3.8406,0.00000,0.01373,-0.30229,-16.7973,0.61018,0.61101,0.00388,-1.1132,-1.21323,-1.21322,0.03235,4.6941
0.0440,B,-0.01081,-0.00396,-2.24044,0.03835,0.00000,-0.08842,-0.24301,1.02951,4.88297,-0.435466,0.004134,-0.004003,0.900187,79,30.562,10.767,101,15,29,10,0.00000,-0.00437,0.06201,7.3473,0.61018,0.60641,-0.03876,3.8592,-1.21323,-1.21543,0.06470,6.1165,0.00000,-0.00002,0.05813,-3.1418,0.61018,0.60877,0.05813,0.9895,-1.21323,-1.21241,0.03235,2.8923,0.00000,-0.00825,-0.03876,12.3939,0.61018,0.61095,0.00000,-0.6927,-1.21323,-1.21241,0.02426,3.8406,0.00000,0.01321,-0.15890,-16.7478,0.61018,0.61116,0.06588,-1.3606,-1.21323,-1.21312,0.01820,4.6467
0.0460,B,-0.01077,-0.00398,-2.24053,0.01598,-0.00959,-0.08522,-0.24301,1.02951,4.88297,-0.435429,0.004136,-0.003984,0.900205,79,30.562,10.631,101,15,29,10,0.00000,-0.00431,0.05038,7.1741,0.61018,0.60644,-0.03100,3.9581,-1.21323,-1.21543,0.06470,6.1165,0.00000,-0.00005,0.03876,-3.1170,0.61018,0.60880,0.02713,1.0885,-1.21323,-1.21241,0.03235,2.8923,0.00000,-0.00822,-0.01550,12.4681,0.61018,0.61098,-0.01550,-0.8411,-1.21323,-1.21238,0.03640,3.6984,0.00000,0.01300,-0.13564,-16.6736,0.61018,0.61116,0.06588,-1.3606,-1.21323,-1.21307,0.02426,4.6941
0.0480,B,-0.01082,-0.00396,-2.24077,-0.06392,0.02024,-0.08842,-0.08021,0.72185,5.78200,-0.435319,0.004136,-0.004009,0.900258,79,30.562,10.836,101,15,29,12,0.00000,-0.00428,-0.00388,7.1741,0.61018,0.60650,0.02325,3.8097,-1.21323,-1.21541,0.01618,6.1165,0.00000,-0.00005,0.03876,-3.2655,0.61018,0.60883,0.05813,1.1132,-1.21323,-1.21224,0.01618,2.7027,0.00000,-0.00822,-0.03876,12.5423,0.61018,0.61098,-0.02325,-0.6679,-1.21323,-1.21233,0.05257,3.6510,0.00000,0.01294,-0.00775,-16.5499,0.61018,0.61125,0.02713,-1.5090,-1.21323,-1.21296,0.04853,4.5993
0.0520,B,-0.01105,-0.00382,-2.24115,-0.09587,0.04794,-0.10759,0.62848,0.63805,5.80833,-0.435146,0.004125,-0.004143,0.900341,79,30.553,11.007,101,15,29,12,0.00000,-0.00416,0.04263,7.2731,0.61018,0.60662,0.00000,3.7107,-1.21323,-1.21540,0.01011,6.0691,0.00000,0.00007,0.09301,-3.3891,0.61018,0.60893,0.04651,0.8906,-1.21323,-1.21213,0.00202,2.8923,0.00000,-0.00816,0.02325,12.3939,0.61018,0.61095,-0.05813,-0.5937,-1.21323,-1.21220,0.04246,3.5087,0.00000,0.01282,0.03488,-17.0447,0.61018,0.61137,0.05813,-1.5090,-1.21323,-1.21288,-0.02022,4.4570
0.0540,B,-0.01123,-0.00374,-2.24138,-0.11505,0.05220,-0.10759,0.62848,0.63805,5.80833,-0.435045,0.004128,-0.004242,0.900389,79,30.562,11.007,101,15,29,13,0.00000,-0.00419,-0.01550,7.3473,0.61018,0.60675,0.05426,3.5871,-1.21323,-1.21540,-0.01213,6.0217,0.00000,0.00007,0.00000,-3.4881,0.61018,0.60899,0.05813,0.7916,-1.21323,-1.21213,0.00000,2.9871,0.00000,-0.00816,-0.05426,12.4681,0.61018,0.61095,-0.05813,-0.5937,-1.21323,-1.21214,0.04651,3.5087,0.00000,0.01285,0.06976,-17.1684,0.61018,0.61143,0.08526,-1.7069,-1.21323,-1.21287,0.00000,4.5044
0.0560,B,-0.01138,-0.00365,-2.24160,-0.10333,0.07137,-0.10972,0.37350,0.52433,6.33985,-0.434945,0.004116,-0.004329,0.900437,79,30.562,10.767,101,15,29,13,0.00000,-0.00416,0.03488,7.2978,0.61018,0.60681,0.07751,3.6613,-1.21323,-1.21540,0.02831,6.0691,0.00000,0.00013,0.09301,-3.4386,0.61018,0.60908,0.01550,0.7669,-1.21323,-1.21216,-0.04246,3.0346,0.00000,-0.00804,0.05813,12.2702,0.61018,0.61095,-0.04651,-0.5442,-1.21323,-1.21209,0.00202,3.2716,0.00000,0.01285,0.06201,-17.0447,0.61018,0.61158,0.06976,-1.7812,-1.21323,-1.21287,-0.02022,4.5993
0.0580,B,-0.01155,-0.00349,-2.24181,-0.10653,0.09907,-0.11292,0.37350,0.52433,6.33985,-0.434851,0.004082,-0.004444,0.900482,79,30.553,10.767,101,15,29,13,0.00000,-0.00416,0.02325,7.1988,0.61018,0.60681,0.00000,3.5871,-1.21323,-1.21538,0.00000,6.0691,0.00000,0.00013,-0.03100,-3.6365,0.61018,0.60917,-0.01938,0.6432,-1.21323,-1.21217,-0.02426,3.0820,0.00000,-0.00801,-0.04263,12.0970,0.61018,0.61095,-0.01550,-0.6679,-1.21323,-1.21208,-0.00607,3.4613,0.00000,0.01285,0.07363,-17.0694,0.61018,0.61161,0.15115,-1.9048,-1.21323,-1.21287,0.01011,4.6467
0.0600,B,-0.01171,-0.00330,-2.24202,-0.10759,0.10653,-0.10546,0.37350,0.52433,6.33985,-0.434754,0.004032,-0.004554,0.900529,79,30.562,10.836,101,16,28,15,0.00000,-0.00409,0.03876,7.0257,0.61018,0.60687,0.09301,3.5376,-1.21323,-1.21540,0.00607,6.1165,0.00000,0.00031,0.09689,-3.8592,0.61018,0.60920,0.04263,0.7421,-1.21323,-1.21224,-0.01011,3.2242,0.00000,-0.00782,0.01550,11.8744,0.61018,0.61095,-0.01163,-0.6927,-1.21323,-1.21205,0.02831,3.5087,0.00000,0.01279,-0.01163,-17.1436,0.61018,0.61165,0.07751,-1.9048,-1.21323,-1.21287,-0.00202,4.6467
0.0620,B,-0.01187,-0.00308,-2.24223,-0.10440,0.12890,-0.10440,-0.16520,-0.17119,7.13831,-0.434662,0.003965,-0.004675,0.900573,79,30.562,10.870,101,16,28,15,0.00000,-0.00403,0.12402,7.1988,0.61018,0.60681,-0.05813,3.6365,-1.21323,-1.21543,-0.03033,6.2114,0.00000,0.00037,0.01938,-3.8592,0.61018,0.60923,0.00000,0.5690,-1.21323,-1.21227,-0.01415,3.2716,0.00000,-0.00776,0.02325,11.9733,0.61018,0.61089,-0.04651,-0.4206,-1.21323,-1.21206,0.00000,3.4613,0.00000,0.01279,-0.03100,-17.1684,0.61018,0.61171,0.03876,-1.7812,-1.21323,-1.21288,-0.01820,4.5993
0.0660,B,-0.01192,-0.00286,-2.24244,-0.03941,0.12357,-0.11398,-0.16520,-0.17119,7.13831,-0.434566,0.003876,-0.004748,0.900619,79,30.562,10.904,101,16,29,15,0.00000,-0.00413,-0.03488,7.2978,0.61018,0.60693,0.02325,3.4634,-1.21323,-1.21541,0.03235,6.2588,0.00000,0.00046,0.08914,-4.0818,0.61018,0.60935,0.08526,0.5195,-1.21323,-1.21233,-0.03842,3.3191,0.00000,-0.00779,-0.05813,11.9981,0.61018,0.61092,0.04651,-0.6679,-1.21323,-1.21205,0.02022,3.5087,0.00000,0.01279,-0.01938,-17.1931,0.61018,0.61171,-0.06588,-1.9791,-1.21323,-1.21290,-0.01415,4.5993
0.0680,B,-0.01194,-0.00264,-2.24264,-0.02344,0.11611,-0.09268,-0.46328,-0.72903,7.55730,-0.434480,0.003784,-0.004804,0.900661,79,30.553,10.972,101,16,29,15,0.00000,-0.00416,-0.00388,7.3967,0.61018,0.60693,0.00000,3.4881,-1.21323,-1.21549,-0.01415,6.3062,0.00000,0.00052,0.06201,-4.1808,0.61018,0.60938,0.05038,0.5195,-1.21323,-1.21243,-0.04651,3.5087,0.00000,-0.00782,-0.12014,12.0228,0.61018,0.61086,-0.05813,-0.4453,-1.21323,-1.21205,0.02831,3.4613,0.00000,0.01270,-0.17052,-16.7726,0.61018,0.61180,0.01550,-1.9791,-1.21323,-1.21288,-0.00202,4.5993
0.0700,B,-0.01192,-0.00240,-2.24283,0.00959,0.12890,-0.09587,-0.46328,-0.72903,7.55730,-0.434393,0.003671,-0.004847,0.900703,79,30.553,11.246,101,16,29,17,0.00000,-0.00413,0.05038,7.4462,0.61018,0.60702,0.10464,3.4386,-1.21323,-1.21552,0.00202,6.3062,0.00000,0.00061,0.07363,-4.2055,0.61018,0.60941,0.04651,0.5195,-1.21323,-1.21247,-0.03235,3.5087,0.00000,-0.00782,-0.00775,12.5176,0.61018,0.61086,0.00775,-0.3711,-1.21323,-1.21205,0.04448,3.6035,0.00000,0.01282,0.04263,-17.1436,0.61018,0.61183,0.04263,-1.8801,-1.21323,-1.21290,-0.03033,4.6467
0.0720,B,-0.01185,-0.00212,-2.24303,0.03409,0.14168,-0.10440,-0.46328,-0.72903,7.55730,-0.434305,0.003529,-0.004875,0.900746,79,30.544,11.280,101,16,29,17,0.00000,-0.00428,-0.10851,7.5204,0.61018,0.60699,-0.00388,3.3397,-1.21323,-1.21559,-0.02426,6.4959,0.00000,0.00067,0.05038,-4.2797,0.61018,0.60947,0.01550,0.2721,-1.21323,-1.21257,-0.04853,3.6510,0.00000,-0.00795,-0.00388,12.5423,0.61018,0.61086,0.00000,-0.5690,-1.21323,-1.21206,0.00809,3.6035,0.00000,0.01276,-0.08526,-16.9952,0.61018,0.61186,0.05813,-1.9791,-1.21323,-1.21290,-0.02022,4.6941
0.0740,B,-0.01176,-0.00189,-2.24323,0.05220,0.11718,-0.10120,-0.38906,-0.50278,8.72806,-0.434214,0.003405,-0.004887,0.900790,79,30.544,11.348,101,16,29,18,0.00000,-0.00443,-0.07363,7.7926,0.61018,0.60705,0.02713,3.3644,-1.21323,-1.21565,0.01011,6.5907,0.00000,0.00086,0.05813,-4.4034,0.61018,0.60953,0.06201,0.4700,-1.21323,-1.21266,-0.06673,3.7932,0.00000,-0.00807,-0.01938,12.8144,0.61018,0.61083,-0.01938,-0.4700,-1.21323,-1.21206,0.00809,3.5087,0.00000,0.01279,0.08914,-17.1931,0.61018,0.61186,0.05426,-1.7812,-1.21323,-1.21290,-0.01820,4.6467
0.0760,B,-0.01169,-0.00163,-2.24342,0.02557,0.12890,-0.09800,-0.38906,-0.50278,8.72806,-0.434130,0.003274,-0.004913,0.900831,79,30.536,11.383,101,16,29,18,0.00000,-0.00449,-0.03876,7.8173,0.61018,0.60711,-0.01550,3.2407,-1.21323,-1.21574,-0.01820,6.7804,0.00000,0.00092,0.04651,-4.4776,0.61018,0.60959,0.01938,0.3711,-1.21323,-1.21273,-0.03640,3.8406,0.00000,-0.00816,-0.08526,12.7155,0.61018,0.61080,-0.00388,-0.4700,-1.21323,-1.21208,0.00000,3.5087,0.00000,0.01273,-0.18603,-16.9457,0.61018,0.61186,0.00000,-1.9791,-1.21323,-1.21290,-0.02022,4.5993
0.0780,B,-0.01161,-0.00112,-2.24377,-0.00746,0.13635,-0.08842,-0.37589,0.06823,10.07720,-0.433974,0.003026,-0.004987,0.900906,79,30.536,11.553,101,17,31,18,0.00000,-0.00455,0.08526,7.9410,0.61018,0.60720,0.01550,3.0181,-1.21323,-1.21603,-0.07684,7.0648,0.00000,0.00107,0.13177,-4.5271,0.61018,0.60974,0.12014,0.1237,-1.21323,-1.21301,-0.07684,4.1251,0.00000,-0.00828,-0.09301,12.7897,0.61018,0.61074,-0.10851,-0.4700,-1.21323,-1.21209,0.00000,3.5087,0.00000,0.01285,0.06588,-16.7726,0.61018,0.61189,0.03100,-1.9048,-1.21323,-1.21292,-0.02831,4.6467
0.0800,B,-0.01162,-0.00091,-2.24393,-0.01491,0.09800,-0.08416,-0.37589,0.06823,10.07720,-0.433901,0.002930,-0.005035,0.900941,79,30.536,11.553,101,17,31,18,0.00000,-0.00467,0.04263,8.0152,0.61018,0.60723,-0.01163,3.0675,-1.21323,-1.21614,-0.07886,7.0648,0.00000,0.00116,0.03488,-4.7992,0.61018,0.60974,0.03876,0.1484,-1.21323,-1.21311,-0.09099,4.2199,0.00000,-0.00831,0.02325,12.9134,0.61018,0.61077,-0.08526,-0.4206,-1.21323,-1.21209,0.02022,3.6035,0.00000,0.01270,-0.20540,-17.0942,0.61018,0.61189,-0.01550,-2.2512,-1.21323,-1.21293,0.00000,4.6467
0.0820,B,-0.01165,-0.00079,-2.24400,-0.04155,0.11611,-0.06711,-0.85832,0.28012,10.74039,-0.433872,0.002885,-0.005075,0.900955,79,30.536,11.656,101,17,31,18,0.00000,-0.00467,0.04263,8.0152,0.61018,0.60729,0.03100,2.9686,-1.21323,-1.21623,-0.08088,7.3019,0.00000,0.00116,0.03488,-4.7992,0.61018,0.60980,0.11239,0.1237,-1.21323,-1.21315,-0.02831,4.2674,0.00000,-0.00831,0.02325,12.9134,0.61018,0.61077,-0.00775,-0.4206,-1.21323,-1.21211,0.00809,3.6035,0.00000,0.01276,-0.04263,-16.8962,0.61018,0.61192,0.03876,-1.9791,-1.21323,-1.21293,0.00000,4.6467
0.0840,B,-0.01170,-0.00060,-2.24415,-0.04261,0.09161,-0.07989,-0.85832,0.28012,10.74039,-0.433805,0.002808,-0.005141,0.900988,79,30.536,11.519,101,17,32,18,0.00000,-0.00479,0.03488,8.2131,0.61018,0.60735,-0.03876,3.0428,-1.21323,-1.21630,-0.03235,7.3967,0.00000,0.00134,0.11627,-4.8240,0.61018,0.60992,0.11627,0.0247,-1.21323,-1.21325,-0.06673,4.3148,0.00000,-0.00840,0.03100,13.1113,0.61018,0.61074,0.01550,-0.4206,-1.21323,-1.21209,0.03437,3.5087,0.00000,0.01285,0.14339,-17.0694,0.61018,0.61192,-0.03488,-2.1275,-1.21323,-1.21296,-0.02022,4.6941
0.0860,B,-0.01184,-0.00032,-2.24435,-0.06072,0.08735,-0.06711,-1.20787,0.09816,11.24676,-0.433715,0.002712,-0.005264,0.901031,79,30.527,11.861,101,17,32,18,0.00000,-0.00488,-0.07363,8.2131,0.61018,0.60744,-0.02713,2.8696,-1.21323,-1.21650,-0.05257,7.5864,0.00000,0.00140,0.09301,-4.9971,0.61018,0.60989,-0.02325,-0.0495,-1.21323,-1.21334,-0.07684,4.4570,0.00000,-0.00846,-0.03488,13.1113,0.61018,0.61074,0.01938,-0.3711,-1.21323,-1.21211,0.00607,3.6035,0.00000,0.01279,0.05426,-16.8962,0.61018,0.61201,0.03876,-2.1522,-1.21323,-1.21296,0.00404,4.6941
0.0880,B,-0.01190,-0.00023,-2.24441,-0.06924,0.08416,-0.06072,-1.20787,0.09816,11.24676,-0.433689,0.002684,-0.005309,0.901043,79,30.527,11.724,101,17,32,18,0.00000,-0.00491,-0.04651,8.2378,0.61018,0.60744,-0.00775,2.9191,-1.21323,-1.21657,-0.02022,7.3967,0.00000,0.00146,0.06201,-5.0466,0.61018,0.60992,0.02713,0.0000,-1.21323,-1.21342,-0.08088,4.5993,0.00000,-0.00849,0.08139,13.1113,0.61018,0.61074,0.01163,-0.3711,-1.21323,-1.21209,0.03033,3.5087,0.00000,0.01273,-0.09689,-16.9457,0.61018,0.61204,0.03876,-2.2017,-1.21323,-1.21299,-0.02831,4.7889
0.0900,B,-0.01203,-0.00010,-2.24452,-0.08203,0.05220,-0.06392,-1.20787,0.09816,11.24676,-0.433637,0.002652,-0.005399,0.901067,79,30.527,11.793,101,17,32,18,0.00000,-0.00494,-0.02713,8.1389,0.61018,0.60750,0.03488,2.7459,-1.21323,-1.21661,-0.01415,7.5864,0.00000,0.00161,0.09301,-5.1950,0.61018,0.60996,0.03876,0.0000,-1.21323,-1.21356,-0.08897,4.5993,0.00000,-0.00858,-0.12789,12.9876,0.61018,0.61071,-0.01938,-0.4453,-1.21323,-1.21209,0.04246,3.6510,0.00000,0.01273,-0.10851,-16.9705,0.61018,0.61204,-0.01938,-2.2512,-1.21323,-1.21301,-0.03235,4.7889
0.0920,B,-0.01221,0.00006,-2.24468,-0.06179,0.04794,-0.05646,-1.10852,-0.05746,11.74236,-0.433569,0.002622,-0.005516,0.901100,79,30.527,11.793,101,17,32,19,0.00000,-0.00494,-0.00388,8.1142,0.61018,0.60753,0.02713,2.7212,-1.21323,-1.21668,0.02022,7.6338,0.00000,0.00158,-0.03488,-5.0961,0.61018,0.60996,0.02713,0.0000,-1.21323,-1.21360,-0.04651,4.6467,0.00000,-0.00855,-0.04263,12.9134,0.61018,0.61068,-0.06201,-0.3711,-1.21323,-1.21209,0.03033,3.5087,0.00000,0.01279,0.08139,-17.0447,0.61018,0.61213,0.11627,-2.2017,-1.21323,-1.21301,-0.00607,4.8363
0.0940,B,-0.01234,0.00016,-2.24476,-0.07244,0.03409,-0.04794,-1.10852,-0.05746,11.74236,-0.433530,0.002605,-0.005594,0.901118,79,30.527,11.998,101,17,32,19,0.00000,-0.00497,-0.04263,8.1142,0.61018,0.60756,0.01938,2.9191,-1.21323,-1.21674,0.01415,7.5864,0.00000,0.00167,0.03488,-5.2693,0.61018,0.61002,0.08139,0.0000,-1.21323,-1.21366,-0.02224,4.6467,0.00000,-0.00858,-0.06976,12.9134,0.61018,0.61074,0.01938,-0.4700,-1.21323,-1.21208,0.05055,3.5087,0.00000,0.01282,0.00388,-16.8962,0.61018,0.61216,0.00000,-2.4986,-1.21323,-1.21304,-0.04853,4.7889
0.0960,B,-0.01242,0.00024,-2.24485,-0.04155,0.02024,-0.05539,-1.01993,-0.45729,12.14818,-0.433490,0.002586,-0.005646,0.901137,79,30.527,11.622,101,17,32,19,0.00000,-0.00494,0.00388,8.2131,0.61018,0.60762,0.01938,2.7459,-1.21323,-1.21675,0.00202,7.4442,0.00000,0.00167,0.03100,-5.1208,0.61018,0.61002,0.06201,0.0247,-1.21323,-1.21367,0.00000,4.6941,0.00000,-0.00852,-0.02325,12.8144,0.61018,0.61077,0.03100,-0.4700,-1.21323,-1.21209,0.02224,3.5087,0.00000,0.01285,0.07751,-17.1684,0.61018,0.61222,0.03876,-2.3254,-1.21323,-1.21303,0.00809,4.7889
0.0980,B,-0.01249,0.00030,-2.24493,-0.03941,0.01704,-0.03728,-1.01993,-0.45729,12.14818,-0.433457,0.002572,-0.005692,0.901153,79,30.527,11.690,101,17,32,18,0.00000,-0.00494,0.00388,8.2131,0.61018,0.60762,0.02713,2.9191,-1.21323,-1.21677,0.01213,7.4916,0.00000,0.00170,0.03876,-5.0961,0.61018,0.61002,0.03876,-0.0495,-1.21323,-1.21369,0.00202,4.5993,0.00000,-0.00855,-0.03488,12.9381,0.61018,0.61077,0.01550,-0.4453,-1.21323,-1.21211,-0.01011,3.4139,0.00000,0.01279,-0.03488,-16.7478,0.61018,0.61222,0.02325,-2.4491,-1.21323,-1.21303,0.01011,4.6941
0.1000,B,-0.01252,0.00032,-2.24497,-0.02237,-0.01172,-0.02024,-1.01993,-0.45729,12.14818,-0.433435,0.002569,-0.005712,0.901163,79,30.527,11.759,101,16,32,18,0.00000,-0.00491,0.06201,7.9410,0.61018,0.60768,0.04651,2.5975,-1.21323,-1.21675,0.00809,7.4442,0.00000,0.00167,-0.01550,-5.1208,0.61018,0.61005,0.10464,0.0000,-1.21323,-1.21372,-0.03033,4.5044,0.00000,-0.00855,-0.06201,12.8144,0.61018,0.61077,0.01550,-0.4206,-1.21323,-1.21209,0.02022,3.4139,0.00000,0.01270,-0.17440,-17.0447,0.61018,0.61228,0.03488,-2.5975,-1.21323,-1.21304,-0.01618,4.8363
0.1020,B,-0.01254,0.00033,-2.24500,-0.02450,-0.00213,-0.02770,-1.31442,-0.51715,11.65378,-0.433424,0.002568,-0.005721,0.901168,79,30.527,11.759,101,16,31,18,0.00000,-0.00488,0.06588,8.0647,0.61018,0.60771,0.02713,2.5975,-1.21323,-1.21675,-0.00202,7.4916,0.00000,0.00167,0.00388,-4.9971,0.61018,0.61005,0.06201,-0.0247,-1.21323,-1.21371,0.01011,4.5993,0.00000,-0.00855,-0.06976,12.9876,0.61018,0.61080,-0.03488,-0.5937,-1.21323,-1.21209,0.01011,3.5087,0.00000,0.01279,0.08914,-16.9705,0.61018,0.61231,0.06976,-2.4244,-1.21323,-1.21304,-0.02022,4.8363
0.1040,B,-0.01257,0.00034,-2.24505,-0.02450,-0.00213,-0.01598,-1.31442,-0.51715,11.65378,-0.433401,0.002569,-0.005740,0.901179,79,30.536,11.451,101,16,31,18,0.00000,-0.00488,0.00388,7.9410,0.61018,0.60768,-0.07363,2.6717,-1.21323,-1.21675,0.00000,7.5864,0.00000,0.00170,0.04263,-4.9971,0.61018,0.60996,-0.08139,0.0000,-1.21323,-1.21371,0.01011,4.5044,0.00000,-0.00852,-0.01163,12.9876,0.61018,0.61083,-0.01938,-0.5937,-1.21323,-1.21209,0.01011,3.4139,0.00000,0.01261,-0.20153,-16.7478,0.61018,0.61234,0.03488,-2.6223,-1.21323,-1.21303,0.00809,4.7889
0.1060,B,-0.01256,0.00031,-2.24509,0.01491,-0.02983,-0.02344,-1.24738,-0.43934,11.25634,-0.433384,0.002583,-0.005726,0.901187,79,30.536,11.588,101,16,31,18,0.00000,-0.00488,-0.01163,7.9163,0.61018,0.60771,-0.00388,2.6717,-1.21323,-1.21674,0.00607,7.3967,0.00000,0.00167,0.05813,-4.8240,0.61018,0.60999,-0.05813,-0.0495,-1.21323,-1.21371,0.00000,4.5044,0.00000,-0.00852,-0.05426,12.7897,0.61018,0.61089,0.05426,-0.5937,-1.21323,-1.21211,-0.03437,3.5087,0.00000,0.01270,0.01550,-16.6241,0.61018,0.61240,0.03100,-2.6470,-1.21323,-1.21304,-0.02022,4.7889
0.1080,B,-0.01256,0.00028,-2.24510,-0.01278,-0.02237,-0.01278,-1.24738,-0.43934,11.25634,-0.433379,0.002594,-0.005721,0.901190,79,30.536,11.485,101,15,30,16,0.00000,-0.00485,0.04651,8.0647,0.61018,0.60774,-0.00388,2.6470,-1.21323,-1.21674,-0.00607,7.4442,0.00000,0.00158,0.05813,-4.9229,0.61018,0.61002,0.02713,0.0000,-1.21323,-1.21371,0.00000,4.4570,0.00000,-0.00849,0.03876,12.9381,0.61018,0.61089,-0.05426,-0.6927,-1.21323,-1.21206,0.00000,3.5087,0.00000,0.01264,-0.03876,-16.7973,0.61018,0.61240,-0.01550,-2.6223,-1.21323,-1.21303,-0.00202,4.6941
0.1100,B,-0.01254,0.00024,-2.24509,0.00320,-0.05326,-0.00426,-1.24738,-0.43934,11.25634,-0.433381,0.002611,-0.005705,0.901189,79,30.544,11.485,101,15,30,16,0.00000,-0.00485,-0.01938,7.9657,0.61018,0.60774,0.00775,2.8202,-1.21323,-1.21671,0.04044,7.4916,0.00000,0.00164,-0.01938,-4.9229,0.61018,0.61002,0.00000,0.0000,-1.21323,-1.21369,-0.01415,4.5044,0.00000,-0.00846,0.03100,12.8392,0.61018,0.61095,0.05813,-0.5937,-1.21323,-1.21206,0.02629,3.4139,0.00000,0.01261,0.03100,-16.5499,0.61018,0.61249,0.05813,-2.8202,-1.21323,-1.21303,0.00202,4.7889
0.1120,B,-0.01255,0.00019,-2.24508,-0.01172,-0.03196,0.00639,-1.09056,-0.34716,10.51533,-0.433387,0.002633,-0.005694,0.901186,79,30.536,11.348,101,15,30,16,0.00000,-0.00479,0.06201,7.8420,0.61018,0.60774,-0.03876,2.7707,-1.21323,-1.21669,0.03842,7.3019,0.00000,0.00152,-0.03876,-4.7498,0.61018,0.61005,0.07363,0.0495,-1.21323,-1.21364,0.03437,4.4570,0.00000,-0.00843,0.07363,12.7155,0.61018,0.61095,-0.02713,-0.7916,-1.21323,-1.21206,0.00404,3.4139,0.00000,0.01243,-0.13952,-16.6489,0.61018,0.61249,0.04263,-2.5480,-1.21323,-1.21303,-0.01415,4.6941
0.1160,B,-0.01256,0.00017,-2.24506,-0.00852,-0.02024,0.01385,-1.09056,-0.34716,10.51533,-0.433396,0.002645,-0.005696,0.901182,79,30.544,11.109,101,14,29,16,0.00000,-0.00476,0.06976,7.8173,0.61018,0.60781,0.00388,2.6470,-1.21323,-1.21668,0.02831,7.3967,0.00000,0.00152,0.01938,-4.7250,0.61018,0.61005,0.08526,-0.0247,-1.21323,-1.21363,0.02629,4.4096,0.00000,-0.00837,0.08139,12.5423,0.61018,0.61095,-0.07751,-0.7916,-1.21323,-1.21200,0.04044,3.2716,0.00000,0.01249,0.08139,-16.5252,0.61018,0.61258,0.08914,-2.7212,-1.21323,-1.21301,0.00000,4.6941
0.1180,B,-0.01264,0.00012,-2.24501,-0.02876,-0.01598,0.01598,-0.94212,-0.27294,9.81862,-0.433419,0.002685,-0.005722,0.901170,79,30.553,10.801,101,14,29,15,0.00000,-0.00473,0.03100,7.8668,0.61018,0.60781,0.00000,2.6470,-1.21323,-1.21661,0.00404,7.3019,0.00000,0.00140,-0.02713,-4.6755,0.61018,0.61005,0.05813,0.0000,-1.21323,-1.21358,0.02426,4.4096,0.00000,-0.00822,0.02713,12.1712,0.61018,0.61101,-0.01550,-0.7421,-1.21323,-1.21192,0.03640,3.2242,0.00000,0.01234,-0.03876,-16.2531,0.61018,0.61261,0.03876,-2.7707,-1.21323,-1.21301,-0.00607,4.6941
0.1200,B,-0.01266,0.00012,-2.24496,-0.02024,-0.01704,0.02131,-0.94212,-0.27294,9.81862,-0.433442,0.002689,-0.005733,0.901159,79,30.571,10.631,101,14,28,14,0.00000,-0.00467,0.04263,7.7926,0.61018,0.60781,-0.01550,2.4986,-1.21323,-1.21657,0.01415,7.2071,0.00000,0.00134,0.00388,-4.5024,0.61018,0.61002,0.00000,0.0000,-1.21323,-1.21353,0.00809,4.4096,0.00000,-0.00791,0.06201,11.8002,0.61018,0.61098,-0.06976,-0.7669,-1.21323,-1.21190,0.02831,3.2242,0.00000,0.01227,-0.15115,-16.2778,0.61018,0.61258,-0.01938,-2.6717,-1.21323,-1.21299,-0.02022,4.6467
0.1220,B,-0.01268,0.00013,-2.24492,-0.01278,-0.00959,0.00746,-0.82241,-0.24421,9.33978,-0.433459,0.002690,-0.005742,0.901151,79,30.571,10.596,101,14,28,14,0.00000,-0.00467,0.03876,7.8668,0.61018,0.60778,-0.06201,2.6223,-1.21323,-1.21650,0.05055,7.0648,0.00000,0.00128,-0.03488,-4.5271,0.61018,0.61005,0.07363,0.0742,-1.21323,-1.21352,-0.01213,4.2674,0.00000,-0.00776,0.05426,11.6765,0.61018,0.61104,0.02325,-0.8411,-1.21323,-1.21187,0.04044,3.0820,0.00000,0.01221,0.03488,-16.1788,0.61018,0.61264,0.05426,-2.6717,-1.21323,-1.21298,-0.02022,4.5993
0.1240,B,-0.01268,0.00014,-2.24488,-0.00746,0.00213,0.01704,-0.82241,-0.24421,9.33978,-0.433477,0.002684,-0.005743,0.901142,79,30.580,10.220,101,14,28,14,0.00000,-0.00464,0.05813,7.7926,0.61018,0.60781,0.01938,2.7212,-1.21323,-1.21645,0.05864,7.0174,0.00000,0.00119,-0.06201,-4.2797,0.61018,0.61002,0.00388,0.0000,-1.21323,-1.21347,0.01820,4.2199,0.00000,-0.00758,0.06976,11.2807,0.61018,0.61104,0.02325,-0.8411,-1.21323,-1.21184,0.03842,3.0820,0.00000,0.01200,-0.19378,-16.1788,0.61018,0.61264,0.06976,-2.6470,-1.21323,-1.21296,-0.02831,4.5993
0.1260,B,-0.01262,0.00016,-2.24484,0.02450,-0.00639,0.01385,-0.85473,-0.31843,8.60835,-0.433493,0.002661,-0.005722,0.901135,79,30.580,10.357,101,14,28,14,0.00000,-0.00467,-0.00388,7.8173,0.61018,0.60774,-0.07363,2.6717,-1.21323,-1.21639,0.02022,7.0174,0.00000,0.00119,0.00000,-4.4282,0.61018,0.61005,0.03876,-0.0247,-1.21323,-1.21345,0.01415,4.2199,0.00000,-0.00749,0.00775,11.4538,0.61018,0.61101,-0.03876,-0.7421,-1.21323,-1.21178,0.03640,3.0820,0.00000,0.01206,0.06588,-15.8572,0.61018,0.61258,-0.02713,-2.6223,-1.21323,-1.21290,0.04853,4.5993
0.1280,B,-0.01260,0.00018,-2.24480,0.00746,0.00852,0.02450,-0.85473,-0.31843,8.60835,-0.433512,0.002651,-0.005718,0.901126,79,30.580,10.015,101,14,28,13,0.00000,-0.00467,-0.00388,7.7431,0.61018,0.60781,-0.02713,2.5233,-1.21323,-1.21633,0.06268,6.9700,0.00000,0.00113,-0.03100,-4.3787,0.61018,0.61002,0.00388,0.0000,-1.21323,-1.21345,0.00404,4.2199,0.00000,-0.00728,0.00388,11.1570,0.61018,0.61104,0.00388,-0.7916,-1.21323,-1.21176,0.02224,3.0820,0.00000,0.01185,-0.21703,-15.9315,0.61018,0.61258,-0.01163,-2.4491,-1.21323,-1.21292,-0.01011,4.5044
0.1320,B,-0.01257,0.00024,-2.24475,-0.00639,0.02344,0.03302,-0.85473,-0.31843,8.60835,-0.433537,0.002615,-0.005714,0.901114,79,30.589,10.084,101,14,28,13,0.00000,-0.00470,-0.03876,7.8668,0.61018,0.60778,-0.02713,2.7707,-1.21323,-1.21631,0.03235,6.8752,0.00000,0.00107,0.05426,-4.2797,0.61018,0.61002,0.00388,0.0495,-1.21323,-1.21341,0.00404,4.2199,0.00000,-0.00719,0.01163,11.2559,0.61018,0.61104,0.02713,-0.6679,-1.21323,-1.21172,0.04853,3.0346,0.00000,0.01194,-0.05426,-15.9562,0.61018,0.61258,0.04263,-2.7212,-1.21323,-1.21287,0.00809,4.5044
0.1340,B,-0.01253,0.00037,-2.24463,-0.01811,0.01811,0.03622,-0.90142,-0.10415,7.98825,-0.433589,0.002550,-0.005727,0.901089,79,30.589,10.118,101,14,28,13,0.00000,-0.00467,0.01163,7.7926,0.61018,0.60778,-0.00388,2.6223,-1.21323,-1.21625,0.07886,6.9700,0.00000,0.00098,0.03876,-4.3292,0.61018,0.60999,-0.00388,-0.0247,-1.21323,-1.21336,0.02426,4.2199,0.00000,-0.00710,-0.05426,11.2559,0.61018,0.61101,-0.01163,-0.5937,-1.21323,-1.21170,0.01213,3.0346,0.00000,0.01167,-0.18215,-15.8078,0.61018,0.61255,0.07363,-2.4244,-1.21323,-1.21284,-0.01415,4.5044
0.1360,B,-0.01249,0.00042,-2.24458,0.02024,0.00639,0.02663,-0.78889,0.04310,7.94276,-0.433612,0.002521,-0.005719,0.901078,79,30.615,10.084,101,14,28,13,0.00000,-0.00467,0.00388,7.8173,0.61018,0.60771,-0.10851,2.7707,-1.21323,-1.21626,0.02629,6.8752,0.00000,0.00095,0.05813,-4.0571,0.61018,0.61002,0.01938,0.0000,-1.21323,-1.21337,-0.02022,4.2199,0.00000,-0.00698,0.06201,11.0828,0.61018,0.61101,0.00000,-0.6927,-1.21323,-1.21165,0.03437,3.0346,0.00000,0.01173,-0.01163,-15.8078,0.61018,0.61258,0.10851,-2.5975,-1.21323,-1.21281,0.01415,4.4096
0.1380,B,-0.01249,0.00045,-2.24456,-0.00320,0.01598,0.01917,-0.78889,0.04310,7.94276,-0.433621,0.002507,-0.005723,0.901074,79,30.589,9.947,101,15,28,13,0.00000,-0.00467,0.03100,7.9163,0.61018,0.60778,0.03100,2.7459,-1.21323,-1.21626,-0.00202,6.9700,0.00000,0.00089,0.00000,-4.1808,0.61018,0.61002,0.02325,0.0247,-1.21323,-1.21337,-0.02831,4.2199,0.00000,-0.00692,0.06201,11.0828,0.61018,0.61098,-0.03876,-0.6679,-1.21323,-1.21167,-0.01618,3.0346,0.00000,0.01173,0.08914,-15.7088,0.61018,0.61246,-0.04263,-2.4986,-1.21323,-1.21281,-0.00809,4.4570
0.1400,B,-0.01251,0.00057,-2.24449,-0.02131,0.03089,0.01598,-0.78889,0.04310,7.94276,-0.433652,0.002455,-0.005761,0.901058,79,30.589,9.879,101,15,28,13,0.00000,-0.00473,-0.01938,7.8420,0.61018,0.60774,-0.04263,2.8202,-1.21323,-1.21623,0.04853,7.0648,0.00000,0.00089,0.00000,-4.0818,0.61018,0.61002,0.01163,0.0000,-1.21323,-1.21336,-0.00809,4.2674,0.00000,-0.00679,0.11239,11.0333,0.61018,0.61101,0.00000,-0.7916,-1.21323,-1.21164,0.00809,2.8923,0.00000,0.01158,-0.15115,-15.8078,0.61018,0.61243,-0.03876,-2.3254,-1.21323,-1.21277,-0.01820,4.4096
0.1420,B,-0.01255,0.00067,-2.24445,-0.03835,0.03835,0.01811,-0.57221,0.08260,7.83862,-0.433671,0.002421,-0.005801,0.901049,79,30.589,9.844,101,15,28,13,0.00000,-0.00476,-0.02713,8.1389,0.61018,0.60774,0.00000,2.8202,-1.21323,-1.21626,-0.00404,7.0174,0.00000,0.00086,0.00388,-4.1560,0.61018,0.60999,-0.02325,0.0495,-1.21323,-1.21337,-0.03235,4.2199,0.00000,-0.00676,0.05038,10.9838,0.61018,0.61092,-0.09689,-0.5690,-1.21323,-1.21162,0.01011,3.0820,0.00000,0.01161,-0.01550,-15.7088,0.61018,0.61243,0.00388,-2.5233,-1.21323,-1.21274,0.02629,4.5044
0.1460,B,-0.01263,0.00081,-2.24435,-0.03622,0.02770,0.02770,-0.80086,0.08021,7.91762,-0.433717,0.002376,-0.005866,0.901027,79,30.598,9.879,101,15,28,13,0.00000,-0.00479,-0.06201,8.0152,0.61018,0.60774,0.00388,2.5975,-1.21323,-1.21623,0.05257,7.0648,0.00000,0.00079,-0.05426,-4.0818,0.61018,0.61002,0.03100,-0.0742,-1.21323,-1.21337,-0.02022,4.2199,0.00000,-0.00673,-0.03876,10.9096,0.61018,0.61092,-0.05426,-0.5442,-1.21323,-1.21164,0.00000,3.0820,0.00000,0.01158,-0.05038,-15.7335,0.61018,0.61240,0.05426,-2.5233,-1.21323,-1.21276,-0.02022,4.4570
0.1480,B,-0.01266,0.00087,-2.24430,-0.02450,0.01704,0.01704,-0.80086,0.08021,7.91762,-0.433740,0.002354,-0.005892,0.901016,79,30.589,9.913,101,15,28,13,0.00000,-0.00479,0.05038,7.9410,0.61018,0.60774,0.00388,2.5975,-1.21323,-1.21626,0.03437,6.9700,0.00000,0.00086,0.03100,-4.3292,0.61018,0.61002,0.03100,-0.0742,-1.21323,-1.21337,-0.02022,4.2199,0.00000,-0.00670,-0.03876,10.9096,0.61018,0.61095,0.03876,-0.5937,-1.21323,-1.21164,0.00000,3.0820,0.00000,0.01152,-0.17440,-15.8078,0.61018,0.61231,-0.04651,-2.2017,-1.21323,-1.21276,-0.02426,4.4570
0.1500,B,-0.01273,0.00093,-2.24425,-0.04261,0.02344,0.02131,-0.80086,0.08021,7.91762,-0.433761,0.002340,-0.005939,0.901006,79,30.589,10.015,101,16,28,14,0.00000,-0.00485,-0.01938,8.0399,0.61018,0.60771,-0.02713,2.7459,-1.21323,-1.21626,0.00404,7.0174,0.00000,0.00089,0.12014,-4.1560,0.61018,0.61002,0.04651,0.0000,-1.21323,-1.21337,-0.01820,4.2674,0.00000,-0.00664,0.04651,10.9096,0.61018,0.61095,0.03876,-0.5937,-1.21323,-1.21164,-0.00809,2.9871,0.00000,0.01164,0.03100,-15.9067,0.61018,0.61237,0.05426,-2.5233,-1.21323,-1.21276,-0.02022,4.5044
0.1540,B,-0.01279,0.00098,-2.24420,-0.04581,0.01491,0.01917,-0.82959,-0.07302,8.31027,-0.433784,0.002331,-0.005973,0.900994,79,30.589,10.049,101,16,28,14,0.00000,-0.00485,0.03100,8.0152,0.61018,0.60778,0.05038,2.7212,-1.21323,-1.21628,0.01415,7.0174,0.00000,0.00089,0.05038,-4.3292,0.61018,0.61002,0.01938,-0.0742,-1.21323,-1.21339,-0.04044,4.2199,0.00000,-0.00667,-0.04263,10.9343,0.61018,0.61092,-0.01163,-0.6679,-1.21323,-1.21162,0.03235,3.0346,0.00000,0.01158,-0.09301,-16.0057,0.61018,0.61231,0.02713,-2.4986,-1.21323,-1.21277,-0.03842,4.5044
0.1560,B,-0.01284,0.00104,-2.24416,-0.02450,0.00746,0.01704,-0.82959,-0.07302,8.31027,-0.433803,0.002317,-0.006011,0.900985,79,30.589,10.049,101,16,28,14,0.00000,-0.00485,0.00775,8.1142,0.61018,0.60771,-0.03876,2.7212,-1.21323,-1.21626,-0.00809,7.0174,0.00000,0.00086,0.01163,-4.2302,0.61018,0.60996,-0.08139,0.0495,-1.21323,-1.21337,0.00000,4.2674,0.00000,-0.00670,-0.08139,10.9838,0.61018,0.61095,0.02325,-0.5937,-1.21323,-1.21164,0.00607,3.0346,0.00000,0.01170,0.12789,-15.9067,0.61018,0.61222,-0.07363,-2.3501,-1.21323,-1.21276,-0.00809,4.4570
0.1580,B,-0.01285,0.00104,-2.24414,-0.02024,-0.01065,0.02131,-0.82959,-0.07302,8.31027,-0.433814,0.002318,-0.006014,0.900980,79,30.589,10.015,101,16,28,14,0.00000,-0.00491,-0.01550,8.0399,0.61018,0.60774,-0.03100,2.6223,-1.21323,-1.21628,-0.00404,7.0648,0.00000,0.00089,0.03876,-4.3292,0.61018,0.61002,0.03876,0.0000,-1.21323,-1.21339,-0.00404,4.3148,0.00000,-0.00670,-0.05426,11.0333,0.61018,0.61089,-0.03876,-0.5690,-1.21323,-1.21162,0.02629,2.9871,0.00000,0.01158,-0.15502,-15.8572,0.61018,0.61228,0.01163,-2.4244,-1.21323,-1.21274,0.01820,4.5044
0.1600,B,-0.01295,0.00113,-2.24404,-0.03835,0.00639,0.01704,-0.83199,-0.20830,8.70053,-0.433859,0.002298,-0.006078,0.900957,79,30.580,10.220,101,16,28,16,0.00000,-0.00506,-0.06201,8.3121,0.61018,0.60774,0.00775,2.4491,-1.21323,-1.21628,0.00607,7.1123,0.00000,0.00089,0.03100,-4.2797,0.61018,0.61002,0.08526,-0.0247,-1.21323,-1.21344,-0.02022,4.3148,0.00000,-0.00673,-0.03876,11.0828,0.61018,0.61092,0.01550,-0.5690,-1.21323,-1.21164,0.01415,3.0346,0.00000,0.01170,-0.01550,-16.0057,0.61018,0.61228,0.01938,-2.3501,-1.21323,-1.21276,0.00607,4.4570
0.1620,B,-0.01295,0.00117,-2.24400,-0.00213,-0.00213,0.01491,-0.76854,-0.29090,9.55646,-0.433873,0.002284,-0.006086,0.900950,79,30.589,10.289,101,16,29,16,0.00000,-0.00506,-0.02325,8.4605,0.61018,0.60771,-0.05038,2.9191,-1.21323,-1.21630,-0.02022,6.9700,0.00000,0.00092,0.05038,-4.2797,0.61018,0.60999,-0.02325,-0.0247,-1.21323,-1.21347,-0.05257,4.3148,0.00000,-0.00676,-0.06201,11.1817,0.61018,0.61095,0.04263,-0.6679,-1.21323,-1.21165,-0.00607,3.0346,0.00000,0.01164,-0.19378,-15.9562,0.61018,0.61222,0.02713,-2.1028,-1.21323,-1.21277,-0.01415,4.5993
0.1640,B,-0.01296,0.00121,-2.24397,-0.02450,0.01917,0.01811,-0.76854,-0.29090,9.55646,-0.433889,0.002267,-0.006102,0.900943,79,30.580,10.289,101,16,29,16,0.00000,-0.00503,0.10464,8.4605,0.61018,0.60771,-0.06201,2.7707,-1.21323,-1.21630,-0.00809,7.0648,0.00000,0.00092,0.00000,-4.3045,0.61018,0.61002,0.06201,0.0000,-1.21323,-1.21347,-0.03235,4.4096,0.00000,-0.00676,-0.03488,10.9591,0.61018,0.61092,0.03100,-0.4700,-1.21323,-1.21165,-0.00202,3.0346,0.00000,0.01179,0.05426,-15.9067,0.61018,0.61225,0.06588,-2.4244,-1.21323,-1.21277,-0.02629,4.5044
0.1660,B,-0.01295,0.00121,-2.24396,0.00533,-0.01278,0.00639,-0.76854,-0.29090,9.55646,-0.433892,0.002264,-0.006095,0.900941,79,30.580,10.255,101,16,29,16,0.00000,-0.00512,-0.02325,8.4605,0.61018,0.60774,0.01550,2.7459,-1.21323,-1.21630,0.00000,7.0648,0.00000,0.00092,0.02325,-4.2797,0.61018,0.61005,0.08526,-0.0495,-1.21323,-1.21347,-0.02022,4.4096,0.00000,-0.00676,-0.01550,11.2312,0.61018,0.61095,0.05038,-0.6679,-1.21323,-1.21164,0.03437,3.1294,0.00000,0.01170,-0.12402,-15.9315,0.61018,0.61219,0.02325,-2.2017,-1.21323,-1.21279,-0.02022,4.5044
0.1680,B,-0.01296,0.00121,-2.24394,-0.02024,-0.00533,0.00959,-0.76734,-0.13886,9.94791,-0.433902,0.002265,-0.006100,0.900937,79,30.580,10.323,101,16,29,17,0.00000,-0.00512,0.05038,8.3121,0.61018,0.60774,0.00000,2.7707,-1.21323,-1.21630,0.00809,6.9700,0.00000,0.00098,0.07751,-4.3787,0.61018,0.61002,0.04263,0.0742,-1.21323,-1.21350,-0.02831,4.4570,0.00000,-0.00676,0.00000,11.0828,0.61018,0.61089,-0.02713,-0.4700,-1.21323,-1.21164,0.03437,3.1294,0.00000,0.01182,0.07363,-16.0304,0.61018,0.61219,-0.01163,-2.2017,-1.21323,-1.21281,-0.00809,4.5993
0.1700,B,-0.01298,0.00124,-2.24388,-0.01278,-0.01598,0.01385,-0.76734,-0.13886,9.94791,-0.433929,0.002257,-0.006118,0.900923,79,30.580,10.186,101,16,30,17,0.00000,-0.00515,0.05813,8.3863,0.61018,0.60774,0.03488,2.6717,-1.21323,-1.21631,-0.00404,7.1123,0.00000,0.00092,-0.03876,-4.3787,0.61018,0.61002,0.05426,0.0000,-1.21323,-1.21350,-0.00404,4.4096,0.00000,-0.00682,-0.06201,11.1817,0.61018,0.61089,0.00388,-0.5690,-1.21323,-1.21165,0.02426,3.0346,0.00000,0.01176,0.12402,-15.8572,0.61018,0.61216,0.01938,-2.2017,-1.21323,-1.21282,-0.01415,4.5993
0.1740,B,-0.01305,0.00126,-2.24386,-0.03302,0.00213,0.00213,-0.84156,-0.20710,10.26394,-0.433941,0.002264,-0.006151,0.900917,79,30.580,10.255,101,16,30,17,0.00000,-0.00518,0.05426,8.5347,0.61018,0.60765,-0.08914,2.8696,-1.21323,-1.21631,0.01415,7.0648,0.00000,0.00098,0.05426,-4.3292,0.61018,0.61002,0.02713,-0.0247,-1.21323,-1.21352,-0.02022,4.4096,0.00000,-0.00686,-0.07363,11.1817,0.61018,0.61083,-0.08914,-0.5442,-1.21323,-1.21167,0.01213,3.0346,0.00000,0.01173,-0.14339,-16.0304,0.61018,0.61210,-0.04263,-2.1028,-1.21323,-1.21284,-0.01213,4.6467
0.1760,B,-0.01306,0.00126,-2.24384,-0.01598,-0.00852,0.00533,-0.84156,-0.20710,10.26394,-0.433950,0.002266,-0.006154,0.900913,79,30.580,10.289,101,16,30,17,0.00000,-0.00522,0.02325,8.5347,0.61018,0.60771,0.04263,2.7212,-1.21323,-1.21631,0.02022,7.1123,0.00000,0.00095,0.00775,-4.1808,0.61018,0.60999,0.00775,0.0247,-1.21323,-1.21353,-0.03640,4.4570,0.00000,-0.00686,-0.06201,11.2312,0.61018,0.61086,0.00000,-0.4700,-1.21323,-1.21167,0.01011,3.0820,0.00000,0.01185,0.03488,-16.3273,0.61018,0.61216,0.10076,-2.3254,-1.21323,-1.21285,-0.03842,4.6467
0.1780,B,-0.01311,0.00130,-2.24380,-0.03515,0.01704,0.01491,-0.81642,-0.30167,10.50935,-0.433966,0.002259,-0.006189,0.900905,79,30.580,10.528,101,16,30,17,0.00000,-0.00525,0.00000,8.4605,0.61018,0.60762,-0.08526,2.9686,-1.21323,-1.21631,0.01618,7.0174,0.00000,0.00098,0.03876,-4.3787,0.61018,0.60999,0.03488,0.0495,-1.21323,-1.21353,-0.01618,4.4570,0.00000,-0.00682,0.07363,11.2807,0.61018,0.61083,-0.01163,-0.3711,-1.21323,-1.21168,-0.00809,3.0820,0.00000,0.01185,0.00775,-16.1294,0.61018,0.61207,-0.03100,-2.0780,-1.21323,-1.21287,-0.02426,4.6941
0.1800,B,-0.01315,0.00131,-2.24378,-0.02770,-0.01065,0.00639,-0.81642,-0.30167,10.50935,-0.433974,0.002262,-0.006206,0.900901,79,30.580,10.494,101,16,30,17,0.00000,-0.00528,-0.01938,8.3863,0.61018,0.60762,-0.03488,2.8449,-1.21323,-1.21630,0.05055,7.0648,0.00000,0.00098,0.09301,-4.3787,0.61018,0.60999,-0.02325,-0.0742,-1.21323,-1.21356,-0.07077,4.4570,0.00000,-0.00692,-0.12014,11.1570,0.61018,0.61077,-0.06201,-0.3216,-1.21323,-1.21168,-0.01820,3.0346,0.00000,0.01191,0.12402,-16.0057,0.61018,0.61207,0.02713,-2.2264,-1.21323,-1.21287,-0.01618,4.6467
0.1820,B,-0.01321,0.00131,-2.24377,-0.03409,-0.01385,0.00852,-0.73263,-0.28850,10.54406,-0.433981,0.002276,-0.006237,0.900898,79,30.580,10.289,101,16,31,17,0.00000,-0.00525,0.03876,8.3368,0.61018,0.60753,-0.10464,3.0181,-1.21323,-1.21633,-0.02224,7.0174,0.00000,0.00095,-0.00388,-4.4034,0.61018,0.60996,-0.04651,0.0495,-1.21323,-1.21353,0.00000,4.5044,0.00000,-0.00689,-0.00775,11.1322,0.61018,0.61077,-0.03876,-0.4206,-1.21323,-1.21165,0.04853,3.1294,0.00000,0.01185,-0.04651,-16.0057,0.61018,0.61201,0.00000,-1.9296,-1.21323,-1.21288,-0.01011,4.6467
0.1840,B,-0.01324,0.00131,-2.24376,-0.03728,-0.00959,0.00533,-0.73263,-0.28850,10.54406,-0.433985,0.002282,-0.006250,0.900896,79,30.580,10.323,101,16,31,17,0.00000,-0.00525,0.03876,8.3368,0.61018,0.60753,-0.04651,3.0181,-1.21323,-1.21633,-0.02224,7.0174,0.00000,0.00095,-0.00388,-4.4034,0.61018,0.60999,0.03488,0.0000,-1.21323,-1.21353,0.00000,4.5044,0.00000,-0.00689,-0.00775,11.1322,0.61018,0.61077,-0.03876,-0.4206,-1.21323,-1.21167,0.02224,3.0820,0.00000,0.01185,-0.04651,-16.0057,0.61018,0.61198,-0.05426,-2.0285,-1.21323,-1.21288,-0.01011,4.6467
0.1860,B,-0.01327,0.00129,-2.24376,-0.02876,-0.02344,-0.00639,-0.73263,-0.28850,10.54406,-0.433985,0.002300,-0.006258,0.900895,79,30.580,10.391,101,15,31,17,0.00000,-0.00525,0.00775,8.2378,0.61018,0.60744,-0.03876,3.1665,-1.21323,-1.21631,0.00607,7.0648,0.00000,0.00098,0.06201,-4.3292,0.61018,0.60996,0.00000,0.1237,-1.21323,-1.21355,-0.02629,4.5044,0.00000,-0.00689,-0.05813,11.2312,0.61018,0.61068,-0.05038,-0.2721,-1.21323,-1.21168,-0.00607,3.1294,0.00000,0.01194,0.09689,-16.0304,0.61018,0.61195,-0.01550,-2.0780,-1.21323,-1.21290,-0.02831,4.6467
0.1880,B,-0.01332,0.00130,-2.24375,-0.02770,-0.01278,0.00426,-0.62848,-0.35434,10.42076,-0.433989,0.002306,-0.006283,0.900893,79,30.571,10.289,101,15,31,17,0.00000,-0.00522,0.00388,8.3368,0.61018,0.60738,-0.10076,3.1170,-1.21323,-1.21628,0.05459,7.0174,0.00000,0.00098,0.03876,-4.2797,0.61018,0.60996,0.01163,0.0742,-1.21323,-1.21353,-0.00607,4.4096,0.00000,-0.00689,-0.01163,11.1570,0.61018,0.61068,-0.03876,-0.3216,-1.21323,-1.21168,-0.00404,3.1294,0.00000,0.01182,-0.14339,-16.0304,0.61018,0.61192,-0.01163,-2.0285,-1.21323,-1.21290,-0.02022,4.5993
0.1900,B,-0.01335,0.00126,-2.24375,-0.03089,-0.03302,0.00320,-0.62848,-0.35434,10.42076,-0.433989,0.002330,-0.006289,0.900893,79,30.580,10.357,101,15,31,17,0.00000,-0.00522,0.00000,8.3863,0.61018,0.60738,-0.03488,3.1665,-1.21323,-1.21630,0.02831,7.0648,0.00000,0.00098,0.03876,-4.2797,0.61018,0.60996,0.02713,0.0742,-1.21323,-1.21353,-0.00202,4.4096,0.00000,-0.00686,0.06201,11.2559,0.61018,0.61062,-0.06201,-0.2721,-1.21323,-1.21167,0.02022,3.0346,0.00000,0.01179,-0.16665,-16.1046,0.61018,0.61186,-0.01163,-1.6080,-1.21323,-1.21290,-0.02022,4.6467
0.1920,B,-0.01338,0.00124,-2.24374,-0.01917,-0.01811,0.00000,-0.70629,-0.42497,9.95389,-0.433993,0.002348,-0.006297,0.900891,79,30.580,10.357,101,15,30,16,0.00000,-0.00515,0.06588,8.1142,0.61018,0.60735,-0.00775,3.2655,-1.21323,-1.21630,0.02831,7.0174,0.00000,0.00089,-0.03100,-4.2302,0.61018,0.60996,0.04651,0.1237,-1.21323,-1.21352,0.01415,4.3148,0.00000,-0.00682,0.09689,11.1570,0.61018,0.61062,-0.03488,-0.1732,-1.21323,-1.21168,-0.01415,3.0346,0.00000,0.01182,-0.11239,-15.9315,0.61018,0.61186,0.00000,-1.9048,-1.21323,-1.21288,0.00809,4.6467
0.1960,B,-0.01341,0.00121,-2.24374,-0.01385,-0.02344,-0.00320,-0.70629,-0.42497,9.95389,-0.433993,0.002364,-0.006303,0.900891,79,30.580,10.289,101,15,30,16,0.00000,-0.00515,0.05038,8.3615,0.61018,0.60720,-0.10851,3.4386,-1.21323,-1.21628,0.04853,7.0174,0.00000,0.00092,0.05426,-4.1560,0.61018,0.60989,0.00000,0.1484,-1.21323,-1.21352,0.01011,4.4096,0.00000,-0.00689,-0.00775,11.1817,0.61018,0.61059,-0.05038,-0.2474,-1.21323,-1.21167,0.02022,3.0346,0.00000,0.01179,-0.14727,-15.8572,0.61018,0.61183,-0.01550,-1.7317,-1.21323,-1.21290,-0.02022,4.6941
0.1980,B,-0.01343,0.00118,-2.24374,-0.02344,-0.01811,-0.00426,-0.55067,-0.49680,9.61990,-0.433991,0.002383,-0.006303,0.900892,79,30.580,10.323,101,15,30,16,0.00000,-0.00512,0.05813,8.1636,0.61018,0.60720,-0.01550,3.4634,-1.21323,-1.21631,-0.02022,7.0174,0.00000,0.00086,-0.00775,-4.1066,0.61018,0.60986,-0.00775,0.0495,-1.21323,-1.21352,0.00809,4.4096,0.00000,-0.00692,-0.04651,11.3301,0.61018,0.61056,-0.03488,-0.1237,-1.21323,-1.21165,0.05055,3.1294,0.00000,0.01191,0.10851,-15.8078,0.61018,0.61177,-0.00775,-1.8059,-1.21323,-1.21290,-0.02022,4.6941
0.2000,B,-0.01346,0.00114,-2.24375,-0.02450,-0.03196,-0.00426,-0.55067,-0.49680,9.61990,-0.433987,0.002408,-0.006312,0.900894,79,30.580,10.186,101,15,30,16,0.00000,-0.00509,0.10851,8.3121,0.61018,0.60711,-0.09689,3.4881,-1.21323,-1.21630,0.00404,7.0174,0.00000,0.00082,-0.06976,-4.1808,0.61018,0.60980,-0.04651,0.2721,-1.21323,-1.21352,0.00000,4.4096,0.00000,-0.00689,-0.00775,11.2559,0.61018,0.61059,0.01163,-0.1732,-1.21323,-1.21165,0.05055,3.1294,0.00000,0.01179,-0.12014,-15.9315,0.61018,0.61177,-0.00775,-1.8059,-1.21323,-1.21290,-0.02224,4.6467
0.2020,B,-0.01348,0.00104,-2.24377,-0.00746,-0.03089,-0.00746,-0.48004,-0.40342,9.21528,-0.433980,0.002459,-0.006297,0.900897,79,30.580,10.289,101,15,30,16,0.00000,-0.00509,0.00000,8.2378,0.61018,0.60702,-0.06976,3.6613,-1.21323,-1.21626,0.04448,7.0174,0.00000,0.00082,0.03488,-3.9829,0.61018,0.60977,-0.01938,0.2226,-1.21323,-1.21352,0.00202,4.4096,0.00000,-0.00689,0.00000,11.1817,0.61018,0.61056,0.02325,-0.1484,-1.21323,-1.21168,-0.00404,3.0346,0.00000,0.01182,0.06976,-16.0057,0.61018,0.61171,0.03100,-1.6822,-1.21323,-1.21290,-0.02022,4.5993
0.2040,B,-0.01349,0.00102,-2.24377,-0.00852,-0.02557,-0.00533,-0.48004,-0.40342,9.21528,-0.433978,0.002469,-0.006295,0.900898,79,30.562,10.255,101,14,30,16,0.00000,-0.00503,0.06588,8.1636,0.61018,0.60699,-0.07751,3.6365,-1.21323,-1.21628,0.01415,7.0174,0.00000,0.00076,0.00388,-3.9829,0.61018,0.60977,0.03100,0.3216,-1.21323,-1.21350,0.02224,4.3148,0.00000,-0.00692,-0.03100,11.3301,0.61018,0.61056,0.02325,-0.1484,-1.21323,-1.21168,-0.00404,3.0346,0.00000,0.01188,0.06976,-16.1046,0.61018,0.61171,0.03100,-1.6822,-1.21323,-1.21290,-0.02022,4.6467
0.2060,B,-0.01353,0.00094,-2.24379,-0.00959,-0.03089,-0.01917,-0.31723,-0.43335,9.10754,-0.433970,0.002512,-0.006300,0.900902,79,30.589,10.323,101,14,30,16,0.00000,-0.00500,0.08139,8.1389,0.61018,0.60696,-0.08139,3.6860,-1.21323,-1.21628,0.01415,7.0648,0.00000,0.00076,0.05426,-3.9581,0.61018,0.60977,0.06976,0.2226,-1.21323,-1.21353,-0.04853,4.2674,0.00000,-0.00692,-0.02713,11.1817,0.61018,0.61049,-0.03488,-0.1484,-1.21323,-1.21167,0.01213,3.1294,0.00000,0.01179,-0.10851,-15.9067,0.61018,0.61165,0.00775,-1.6822,-1.21323,-1.21290,-0.02426,4.5993
0.2080,B,-0.01356,0.00089,-2.24381,-0.02557,-0.02557,-0.00639,-0.31723,-0.43335,9.10754,-0.433960,0.002539,-0.006302,0.900907,79,30.580,10.289,101,14,30,16,0.00000,-0.00500,0.06201,8.2131,0.61018,0.60687,-0.11627,3.6613,-1.21323,-1.21626,0.02629,7.0174,0.00000,0.00070,-0.05426,-3.9829,0.61018,0.60971,0.00000,0.3711,-1.21323,-1.21348,0.02831,4.3148,0.00000,-0.00692,-0.03876,11.2559,0.61018,0.61049,-0.01550,-0.1732,-1.21323,-1.21167,0.00404,3.0820,0.00000,0.01176,-0.13177,-16.0304,0.61018,0.61161,-0.00388,-1.6327,-1.21323,-1.21290,-0.02224,4.6467
0.2100,B,-0.01356,0.00084,-2.24383,-0.01065,-0.03302,-0.01491,-0.31723,-0.43335,9.10754,-0.433951,0.002565,-0.006293,0.900911,79,30.580,10.357,101,14,30,15,0.00000,-0.00500,-0.01550,8.0399,0.61018,0.60684,-0.08914,3.8097,-1.21323,-1.21625,0.05662,7.0648,0.00000,0.00076,0.05426,-4.0818,0.61018,0.60971,0.03100,0.3711,-1.21323,-1.21348,0.02629,4.4096,0.00000,-0.00695,-0.06201,11.1817,0.61018,0.61046,-0.02713,-0.0742,-1.21323,-1.21168,-0.00202,3.2242,0.00000,0.01176,-0.12402,-15.8325,0.61018,0.61161,0.05038,-1.5833,-1.21323,-1.21290,-0.01415,4.6467
0.2120,B,-0.01356,0.00084,-2.24383,-0.01065,-0.03302,-0.01491,-0.31723,-0.43335,9.10754,-0.433951,0.002565,-0.006293,0.900911,79,30.580,10.357,101,14,30,15,0.00000,-0.00500,-0.01550,8.0399,0.61018,0.60681,-0.09301,3.7602,-1.21323,-1.21625,0.05662,7.0648,0.00000,0.00070,-0.02713,-3.9581,0.61018,0.60965,-0.03876,0.3463,-1.21323,-1.21348,0.02629,4.4096,0.00000,-0.00695,-0.06201,11.1817,0.61018,0.61043,-0.08139,-0.0495,-1.21323,-1.21168,-0.00202,3.2242,0.00000,0.01182,0.00388,-15.8078,0.61018,0.61158,0.00000,-1.5833,-1.21323,-1.21290,-0.01415,4.6467
0.2160,B,-0.01358,0.00075,-2.24386,-0.01065,-0.02344,-0.01172,-0.34117,-0.39744,8.80947,-0.433936,0.002607,-0.006282,0.900918,79,30.580,10.289,101,15,30,15,0.00000,-0.00497,0.03100,8.0647,0.61018,0.60678,-0.06976,3.8097,-1.21323,-1.21628,-0.01618,6.8752,0.00000,0.00073,0.05426,-3.9829,0.61018,0.60965,0.01938,0.2721,-1.21323,-1.21348,0.00607,4.3148,0.00000,-0.00695,0.00775,11.4291,0.61018,0.61043,-0.01163,-0.0495,-1.21323,-1.21167,0.02426,3.0820,0.00000,0.01179,-0.03876,-15.7583,0.61018,0.61155,0.00000,-1.6822,-1.21323,-1.21290,-0.01820,4.6467
0.2180,B,-0.01360,0.00067,-2.24389,-0.00533,-0.01917,-0.01385,-0.23463,-0.46448,8.84179,-0.433924,0.002646,-0.006270,0.900924,79,30.580,10.323,101,15,30,16,0.00000,-0.00500,-0.06976,8.0647,0.61018,0.60672,-0.07363,3.8839,-1.21323,-1.21628,0.00000,7.0648,0.00000,0.00073,0.06201,-4.1066,0.61018,0.60959,0.00000,0.5195,-1.21323,-1.21347,0.01011,4.4096,0.00000,-0.00695,0.00000,11.2559,0.61018,0.61040,-0.04651,-0.0495,-1.21323,-1.21167,0.02022,3.0820,0.00000,0.01182,0.00388,-16.0057,0.61018,0.61152,0.05813,-1.4596,-1.21323,-1.21290,-0.00202,4.5993
0.2220,B,-0.01359,0.00063,-2.24391,0.00320,-0.02237,-0.00959,-0.23463,-0.46448,8.84179,-0.433914,0.002665,-0.006261,0.900929,79,30.571,10.425,101,15,30,16,0.00000,-0.00497,-0.04651,7.9163,0.61018,0.60672,0.00000,3.9581,-1.21323,-1.21628,0.00000,7.0174,0.00000,0.00067,-0.01550,-3.9829,0.61018,0.60956,-0.05038,0.4700,-1.21323,-1.21347,0.00000,4.2674,0.00000,-0.00701,-0.05038,11.3549,0.61018,0.61040,0.01938,0.0247,-1.21323,-1.21168,0.02224,3.1294,0.00000,0.01179,-0.06201,-16.0551,0.61018,0.61146,0.02713,-1.3111,-1.21323,-1.21292,-0.00607,4.5993
0.2240,B,-0.01364,0.00059,-2.24394,-0.01598,-0.00426,-0.00746,-0.17238,-0.43934,8.88488,-0.433902,0.002691,-0.006271,0.900934,79,30.580,10.357,101,15,30,16,0.00000,-0.00491,0.07363,8.1636,0.61018,0.60662,-0.05038,3.8592,-1.21323,-1.21628,-0.00607,7.0648,0.00000,0.00070,0.05813,-3.9829,0.61018,0.60956,0.02325,0.5195,-1.21323,-1.21348,-0.02224,4.3148,0.00000,-0.00704,-0.05813,11.3549,0.61018,0.61037,-0.05038,0.0000,-1.21323,-1.21168,0.00000,3.2242,0.00000,0.01182,-0.03100,-16.1541,0.61018,0.61146,-0.06976,-1.5090,-1.21323,-1.21295,-0.02022,4.6941
0.2260,B,-0.01363,0.00057,-2.24394,-0.01172,-0.01278,-0.00533,-0.11851,-0.40582,9.00459,-0.433898,0.002702,-0.006263,0.900936,79,30.580,10.323,101,15,30,16,0.00000,-0.00491,0.05813,7.9410,0.61018,0.60656,-0.03100,4.0571,-1.21323,-1.21626,0.03842,7.0174,0.00000,0.00070,0.03876,-4.0076,0.61018,0.60950,-0.01938,0.5195,-1.21323,-1.21347,-0.00404,4.3148,0.00000,-0.00704,-0.03488,11.2559,0.61018,0.61037,0.00000,-0.0495,-1.21323,-1.21168,-0.00607,3.0346,0.00000,0.01185,0.02713,-16.0057,0.61018,0.61146,0.05813,-1.5833,-1.21323,-1.21295,-0.00404,4.6941
0.2280,B,-0.01362,0.00056,-2.24396,0.00000,0.00213,-0.00213,-0.11851,-0.40582,9.00459,-0.433892,0.002702,-0.006257,0.900939,79,30.580,10.391,101,15,31,16,0.00000,-0.00494,0.02713,8.1636,0.61018,0.60650,-0.09301,4.0076,-1.21323,-1.21626,0.04651,7.0174,0.00000,0.00070,0.03488,-3.9829,0.61018,0.60950,-0.01163,0.5442,-1.21323,-1.21348,-0.02426,4.2674,0.00000,-0.00704,-0.03488,11.3796,0.61018,0.61034,-0.04263,-0.0495,-1.21323,-1.21168,0.00404,3.2242,0.00000,0.01179,-0.11239,-15.9067,0.61018,0.61134,-0.03876,-1.1132,-1.21323,-1.21299,-0.04853,4.8363
0.2300,B,-0.01361,0.00054,-2.24396,0.00426,-0.01491,-0.00852,-0.11851,-0.40582,9.00459,-0.433889,0.002708,-0.006250,0.900940,79,30.571,10.494,101,15,31,16,0.00000,-0.00494,0.02713,8.1636,0.61018,0.60650,-0.01163,4.1808,-1.21323,-1.21626,0.04651,7.0174,0.00000,0.00070,0.03488,-3.9829,0.61018,0.60944,-0.03488,0.7916,-1.21323,-1.21348,-0.02426,4.2674,0.00000,-0.00704,-0.03488,11.3796,0.61018,0.61037,0.05426,0.1237,-1.21323,-1.21168,0.00404,3.2242,0.00000,0.01185,0.00775,-16.1046,0.61018,0.61137,0.03876,-1.4101,-1.21323,-1.21299,-0.04853,4.8363
0.2320,B,-0.01362,0.00054,-2.24398,-0.01065,0.00959,-0.00107,-0.09337,-0.31603,9.23683,-0.433884,0.002709,-0.006254,0.900943,79,30.571,10.460,101,15,31,16,0.00000,-0.00497,-0.05426,8.1389,0.61018,0.60647,-0.01550,4.1808,-1.21323,-1.21630,-0.02629,7.0648,0.00000,0.00067,-0.05038,-4.0818,0.61018,0.60947,0.01163,0.5195,-1.21323,-1.21347,0.01415,4.4096,0.00000,-0.00707,-0.01550,11.5033,0.61018,0.61031,-0.06201,0.0495,-1.21323,-1.21168,-0.00809,3.0346,0.00000,0.01185,0.03876,-16.1294,0.61018,0.61137,0.02713,-1.3111,-1.21323,-1.21298,0.02426,4.8363
0.2340,B,-0.01363,0.00053,-2.24397,-0.00746,-0.02237,-0.00320,-0.09337,-0.31603,9.23683,-0.433886,0.002717,-0.006253,0.900942,79,30.580,10.357,101,15,31,16,0.00000,-0.00494,0.00775,8.0399,0.61018,0.60638,-0.08526,4.2055,-1.21323,-1.21626,0.04448,7.0174,0.00000,0.00067,-0.00388,-4.0571,0.61018,0.60944,0.03876,0.5937,-1.21323,-1.21348,-0.02022,4.4096,0.00000,-0.00707,-0.03100,11.2807,0.61018,0.61034,0.00775,0.0000,-1.21323,-1.21170,0.00809,3.2716,0.00000,0.01185,-0.04263,-16.1788,0.61018,0.61128,-0.00775,-1.1874,-1.21323,-1.21301,-0.02022,4.8837
0.2360,B,-0.01363,0.00051,-2.24397,0.00746,-0.00852,0.00852,-0.11013,-0.30287,9.32182,-0.433888,0.002728,-0.006251,0.900941,79,30.571,10.528,101,15,31,16,0.00000,-0.00494,-0.00775,8.0399,0.61018,0.60641,-0.07363,4.2797,-1.21323,-1.21631,-0.03842,7.0174,0.00000,0.00070,-0.01163,-4.1560,0.61018,0.60944,0.03876,0.6432,-1.21323,-1.21347,0.00202,4.3148,0.00000,-0.00710,-0.02713,11.4538,0.61018,0.61031,-0.05813,-0.0495,-1.21323,-1.21168,0.03842,3.1294,0.00000,0.01191,0.05426,-16.2283,0.61018,0.61122,-0.02325,-1.0885,-1.21323,-1.21301,-0.00202,4.6941
0.2380,B,-0.01363,0.00048,-2.24398,-0.00320,-0.01491,-0.01278,-0.11013,-0.30287,9.32182,-0.433881,0.002741,-0.006245,0.900945,79,30.571,10.528,101,15,31,16,0.00000,-0.00494,0.03876,8.1389,0.61018,0.60635,-0.01550,4.2055,-1.21323,-1.21630,-0.00607,7.0174,0.00000,0.00073,0.03488,-3.9086,0.61018,0.60935,-0.00775,0.9401,-1.21323,-1.21348,-0.02022,4.3148,0.00000,-0.00710,0.05426,11.4538,0.61018,0.61031,-0.05813,-0.0247,-1.21323,-1.21170,-0.00607,3.1294,0.00000,0.01191,0.06588,-16.0304,0.61018,0.61125,0.04651,-1.4101,-1.21323,-1.21304,-0.01011,4.8837
0.2400,B,-0.01363,0.00047,-2.24399,-0.00852,0.00426,-0.00533,-0.11013,-0.30287,9.32182,-0.433878,0.002745,-0.006240,0.900946,79,30.571,10.562,101,15,32,16,0.00000,-0.00494,0.01938,7.9657,0.61018,0.60632,-0.00775,4.3292,-1.21323,-1.21631,-0.01213,7.0648,0.00000,0.00073,0.05813,-4.0571,0.61018,0.60941,-0.05038,0.5442,-1.21323,-1.21348,-0.00202,4.4096,0.00000,-0.00713,-0.03876,11.4291,0.61018,0.61037,0.06588,0.0000,-1.21323,-1.21172,0.01011,3.1294,0.00000,0.01191,0.04263,-16.2283,0.61018,0.61116,-0.05038,-1.0390,-1.21323,-1.21306,0.00000,4.8837
0.2420,B,-0.01364,0.00046,-2.24397,-0.00852,-0.00959,0.00959,-0.03472,-0.33998,9.61152,-0.433884,0.002754,-0.006244,0.900943,79,30.571,10.425,101,15,32,16,0.00000,-0.00491,0.08914,8.1389,0.61018,0.60629,-0.00775,4.4034,-1.21323,-1.21628,0.00607,6.9700,0.00000,0.00073,0.03100,-4.0076,0.61018,0.60932,-0.05426,0.7916,-1.21323,-1.21350,-0.03842,4.3148,0.00000,-0.00713,-0.09689,11.4291,0.61018,0.61034,-0.00388,-0.0495,-1.21323,-1.21173,0.00000,3.0820,0.00000,0.01197,-0.09301,-16.1294,0.61018,0.61116,-0.01938,-1.1874,-1.21323,-1.21307,-0.00607,4.8837
0.2440,B,-0.01363,0.00044,-2.24397,0.00533,-0.01172,-0.00213,-0.03472,-0.33998,9.61152,-0.433884,0.002758,-0.006236,0.900943,79,30.571,10.631,101,15,32,16,0.00000,-0.00491,0.08914,8.1389,0.61018,0.60620,-0.13952,4.4282,-1.21323,-1.21630,0.01820,7.0648,0.00000,0.00073,0.03100,-4.0076,0.61018,0.60935,0.03100,0.5937,-1.21323,-1.21350,-0.03235,4.4096,0.00000,-0.00713,-0.09689,11.4291,0.61018,0.61034,-0.00388,-0.0495,-1.21323,-1.21173,0.04448,3.2716,0.00000,0.01197,-0.09301,-16.1294,0.61018,0.61116,0.01163,-1.0885,-1.21323,-1.21307,-0.00607,4.8837
0.2460,B,-0.01364,0.00041,-2.24397,-0.01065,-0.01598,-0.00533,-0.03472,-0.33998,9.61152,-0.433885,0.002775,-0.006233,0.900942,79,30.571,10.596,101,15,32,16,0.00000,-0.00488,0.08914,7.9657,0.61018,0.60620,-0.03100,4.5766,-1.21323,-1.21631,-0.00202,7.0648,0.00000,0.00073,0.00000,-4.1066,0.61018,0.60932,-0.00388,0.8658,-1.21323,-1.21350,-0.03235,4.3148,0.00000,-0.00716,-0.06976,11.4538,0.61018,0.61028,-0.08139,0.0247,-1.21323,-1.21176,-0.01415,3.1294,0.00000,0.01200,0.12014,-16.1046,0.61018,0.61113,0.00000,-1.1132,-1.21323,-1.21311,-0.00607,4.8837
0.2500,B,-0.01364,0.00041,-2.24397,-0.00639,0.01172,0.00107,-0.08380,-0.28132,9.74201,-0.433888,0.002776,-0.006233,0.900941,79,30.571,10.596,101,15,32,16,0.00000,-0.00494,0.02713,8.1636,0.61018,0.60620,0.01938,4.4034,-1.21323,-1.21630,0.02426,7.0648,0.00000,0.00073,0.03100,-4.0818,0.61018,0.60929,0.01550,0.7421,-1.21323,-1.21348,-0.00607,4.4096,0.00000,-0.00719,-0.10464,11.4538,0.61018,0.61031,-0.04263,0.0000,-1.21323,-1.21176,-0.00202,3.2716,0.00000,0.01200,0.10464,-15.8572,0.61018,0.61110,-0.01938,-1.0390,-1.21323,-1.21314,-0.04853,4.8837
0.2520,B,-0.01363,0.00035,-2.24396,-0.00107,-0.00320,0.00213,0.00718,-0.27174,9.87608,-0.433892,0.002800,-0.006216,0.900939,79,30.571,10.596,101,15,33,16,0.00000,-0.00497,-0.03100,8.1389,0.61018,0.60611,-0.06588,4.4776,-1.21323,-1.21631,0.00607,7.0648,0.00000,0.00073,0.01163,-4.1066,0.61018,0.60923,-0.01163,0.8411,-1.21323,-1.21350,0.02224,4.3148,0.00000,-0.00716,-0.02713,11.6023,0.61018,0.61028,-0.08526,-0.0247,-1.21323,-1.21178,0.01618,3.2716,0.00000,0.01185,-0.18990,-16.0304,0.61018,0.61104,-0.01550,-0.9895,-1.21323,-1.21315,-0.01820,4.8837
0.2540,B,-0.01362,0.00030,-2.24394,-0.00746,-0.01065,0.00533,0.00718,-0.27174,9.87608,-0.433900,0.002820,-0.006200,0.900935,79,30.562,10.631,101,15,33,16,0.00000,-0.00497,-0.07363,7.9657,0.61018,0.60611,-0.05038,4.4034,-1.21323,-1.21631,0.00404,7.0648,0.00000,0.00073,0.01163,-3.9829,0.61018,0.60920,-0.00388,0.9895,-1.21323,-1.21350,-0.02629,4.4096,0.00000,-0.00716,0.01163,11.5033,0.61018,0.61034,0.01550,0.0000,-1.21323,-1.21179,0.00000,3.2242,0.00000,0.01200,0.05426,-16.4262,0.61018,0.61104,0.00000,-1.0637,-1.21323,-1.21317,-0.00809,4.8837
0.2560,B,-0.01362,0.00028,-2.24393,-0.00959,-0.01598,0.00639,0.00718,-0.27174,9.87608,-0.433904,0.002830,-0.006197,0.900934,79,30.562,10.596,101,15,33,16,0.00000,-0.00491,0.08526,8.1636,0.61018,0.60608,-0.02713,4.5271,-1.21323,-1.21633,-0.02022,7.1123,0.00000,0.00073,-0.00388,-4.0818,0.61018,0.60926,0.09301,0.6679,-1.21323,-1.21350,-0.02022,4.4096,0.00000,-0.00716,-0.01163,11.4291,0.61018,0.61034,0.01550,0.0000,-1.21323,-1.21179,0.01415,3.1294,0.00000,0.01194,-0.08139,-15.9562,0.61018,0.61104,0.02325,-0.8906,-1.21323,-1.21317,0.01011,4.8363
0.2580,B,-0.01360,0.00022,-2.24393,0.00320,-0.01917,-0.00107,0.01556,-0.26935,9.88566,-0.433905,0.002851,-0.006175,0.900933,79,30.562,10.596,101,15,33,16,0.00000,-0.00494,-0.00388,7.9657,0.61018,0.60608,0.01163,4.5766,-1.21323,-1.21633,-0.02022,7.1123,0.00000,0.00073,0.01550,-4.0818,0.61018,0.60914,-0.06976,1.0885,-1.21323,-1.21348,-0.00809,4.4096,0.00000,-0.00719,-0.04263,11.5775,0.61018,0.61031,-0.00388,0.0742,-1.21323,-1.21181,0.02629,3.2716,0.00000,0.01194,-0.11627,-16.2531,0.61018,0.61104,0.01938,-0.9648,-1.21323,-1.21318,-0.01213,4.9786
0.2600,B,-0.01356,0.00015,-2.24392,-0.00426,-0.02770,-0.00107,0.01556,-0.26935,9.88566,-0.433908,0.002877,-0.006142,0.900932,79,30.562,10.562,101,15,33,16,0.00000,-0.00491,0.03876,8.1142,0.61018,0.60605,0.00775,4.6261,-1.21323,-1.21631,0.00607,7.0174,0.00000,0.00076,0.05426,-3.9829,0.61018,0.60923,0.12014,0.7669,-1.21323,-1.21348,-0.00202,4.3148,0.00000,-0.00716,0.02325,11.3549,0.61018,0.61034,0.00000,-0.0247,-1.21323,-1.21183,-0.00202,3.3191,0.00000,0.01203,0.05426,-16.1046,0.61018,0.61095,-0.05426,-0.9401,-1.21323,-1.21320,-0.02629,4.8363
0.2620,B,-0.01355,0.00008,-2.24391,0.00426,-0.02770,0.00000,0.07422,-0.27892,9.89883,-0.433911,0.002905,-0.006119,0.900931,79,30.562,10.665,101,15,33,16,0.00000,-0.00488,0.05426,8.0152,0.61018,0.60602,-0.03876,4.5766,-1.21323,-1.21631,0.01213,7.0648,0.00000,0.00076,0.05038,-4.0818,0.61018,0.60914,-0.03876,0.9895,-1.21323,-1.21348,-0.01011,4.4096,0.00000,-0.00719,-0.03488,11.6517,0.61018,0.61034,0.01938,0.0000,-1.21323,-1.21183,0.01213,3.2716,0.00000,0.01206,0.09301,-16.1541,0.61018,0.61098,-0.05038,-0.9895,-1.21323,-1.21320,-0.01618,4.8837
0.2640,B,-0.01355,0.00008,-2.24391,0.00426,-0.02770,0.00000,0.07422,-0.27892,9.89883,-0.433911,0.002905,-0.006119,0.900931,79,30.562,10.665,101,15,34,16,0.00000,-0.00488,0.05426,8.0152,0.61018,0.60599,-0.06588,4.5766,-1.21323,-1.21631,0.01213,7.0648,0.00000,0.00076,0.05038,-4.0818,0.61018,0.60911,0.05426,1.0637,-1.21323,-1.21348,-0.01011,4.4096,0.00000,-0.00719,-0.03488,11.6517,0.61018,0.61034,0.01938,-0.0247,-1.21323,-1.21181,0.03437,3.2242,0.00000,0.01206,0.09301,-16.1541,0.61018,0.61098,0.02325,-0.8658,-1.21323,-1.21320,-0.01618,4.8837
0.2660,B,-0.01353,0.00000,-2.24391,0.00320,-0.01917,-0.00213,0.07422,-0.27892,9.89883,-0.433914,0.002933,-0.006096,0.900929,79,30.562,10.460,101,15,34,16,0.00000,-0.00491,0.01550,7.9657,0.61018,0.60599,-0.01163,4.5271,-1.21323,-1.21631,0.01213,7.0174,0.00000,0.00073,-0.01938,-4.1808,0.61018,0.60914,0.00000,0.8906,-1.21323,-1.21350,-0.03437,4.3148,0.00000,-0.00716,0.00388,11.4538,0.61018,0.61034,0.00000,-0.0495,-1.21323,-1.21183,0.00607,3.2716,0.00000,0.01200,-0.04263,-16.1788,0.61018,0.61101,0.05038,-1.1627,-1.21323,-1.21322,-0.02022,5.0260
0.2680,B,-0.01353,-0.00006,-2.24391,-0.01065,-0.02663,-0.00533,0.13048,-0.20590,9.89164,-0.433912,0.002962,-0.006080,0.900930,79,30.562,10.596,101,15,34,16,0.00000,-0.00485,0.06976,7.9657,0.61018,0.60596,-0.03876,4.6013,-1.21323,-1.21633,-0.02426,7.0174,0.00000,0.00073,0.00388,-4.0818,0.61018,0.60914,0.06201,0.8906,-1.21323,-1.21350,-0.03640,4.3148,0.00000,-0.00716,0.02713,11.6023,0.61018,0.61034,0.00775,-0.0247,-1.21323,-1.21184,0.01820,3.2242,0.00000,0.01203,0.02325,-16.0304,0.61018,0.61095,-0.01938,-0.8411,-1.21323,-1.21318,0.03235,4.8837
0.2700,B,-0.01351,-0.00011,-2.24391,0.00426,-0.02344,-0.00426,0.13048,-0.20590,9.89164,-0.433912,0.002980,-0.006062,0.900930,79,30.571,10.562,101,15,34,16,0.00000,-0.00485,0.01938,8.0152,0.61018,0.60596,-0.01550,4.7003,-1.21323,-1.21630,0.02831,7.0648,0.00000,0.00073,0.00775,-4.0818,0.61018,0.60908,-0.04263,1.0390,-1.21323,-1.21350,-0.03033,4.4096,0.00000,-0.00722,-0.10464,11.5033,0.61018,0.61037,0.03876,0.0000,-1.21323,-1.21186,-0.01011,3.2242,0.00000,0.01194,-0.17827,-16.2283,0.61018,0.61095,0.00000,-0.8411,-1.21323,-1.21320,0.01011,5.0260
0.2720,B,-0.01347,-0.00021,-2.24390,0.01704,-0.03728,-0.00320,0.14245,-0.22505,9.67856,-0.433915,0.003017,-0.006020,0.900928,79,30.571,10.562,101,15,34,16,0.00000,-0.00482,0.05813,7.9410,0.61018,0.60596,-0.00775,4.5766,-1.21323,-1.21630,0.03033,7.1123,0.00000,0.00073,0.03876,-3.9086,0.61018,0.60911,0.05426,1.0390,-1.21323,-1.21347,0.00809,4.2674,0.00000,-0.00722,-0.09301,11.4538,0.61018,0.61031,-0.00775,0.0247,-1.21323,-1.21186,-0.00607,3.2242,0.00000,0.01197,-0.11239,-15.9315,0.61018,0.61098,0.09301,-0.9648,-1.21323,-1.21323,-0.03842,4.9786
0.2740,B,-0.01345,-0.00025,-2.24392,-0.00426,0.00107,-0.01811,0.14245,-0.22505,9.67856,-0.433905,0.003030,-0.006004,0.900934,79,30.562,10.733,101,15,34,16,0.00000,-0.00485,-0.01938,7.9410,0.61018,0.60590,-0.06588,4.6013,-1.21323,-1.21631,0.00000,7.0174,0.00000,0.00073,0.01550,-4.2302,0.61018,0.60905,-0.01938,1.0885,-1.21323,-1.21347,0.00404,4.2674,0.00000,-0.00722,-0.11239,11.3549,0.61018,0.61037,0.05426,-0.0742,-1.21323,-1.21184,0.03033,3.3191,0.00000,0.01200,-0.06201,-16.2531,0.61018,0.61095,0.03100,-0.9401,-1.21323,-1.21322,-0.00809,4.8837
0.2760,B,-0.01345,-0.00027,-2.24393,-0.01278,-0.00959,-0.00320,0.14245,-0.22505,9.67856,-0.433904,0.003039,-0.006002,0.900934,79,30.562,10.596,101,15,34,16,0.00000,-0.00479,0.06201,7.7926,0.61018,0.60590,-0.05426,4.6261,-1.21323,-1.21631,0.00000,7.0648,0.00000,0.00073,0.06588,-3.9829,0.61018,0.60911,0.08914,1.0637,-1.21323,-1.21348,-0.01415,4.4096,0.00000,-0.00722,-0.11239,11.4291,0.61018,0.61031,-0.03876,0.0000,-1.21323,-1.21187,-0.02629,3.4139,0.00000,0.01197,-0.13177,-16.0304,0.61018,0.61092,0.00000,-0.9895,-1.21323,-1.21320,0.02629,4.8837
0.2780,B,-0.01342,-0.00032,-2.24395,-0.00320,-0.01065,-0.01385,0.18076,-0.23224,9.62230,-0.433893,0.003057,-0.005976,0.900939,79,30.571,10.562,101,15,34,15,0.00000,-0.00479,0.05426,7.9410,0.61018,0.60593,0.04651,4.7003,-1.21323,-1.21631,-0.01213,7.0648,0.00000,0.00076,0.10851,-4.0571,0.61018,0.60905,0.01163,1.1627,-1.21323,-1.21348,-0.01213,4.4096,0.00000,-0.00716,0.00775,11.4291,0.61018,0.61031,-0.01938,0.0000,-1.21323,-1.21184,0.03437,3.2716,0.00000,0.01200,-0.05038,-16.0304,0.61018,0.61092,0.01163,-0.8906,-1.21323,-1.21320,0.03033,4.8363
0.2800,B,-0.01339,-0.00037,-2.24396,0.01172,-0.01917,-0.00852,0.18076,-0.23224,9.62230,-0.433887,0.003071,-0.005954,0.900943,79,30.571,10.665,101,15,34,15,0.00000,-0.00479,0.10076,7.8420,0.61018,0.60590,0.00388,4.7003,-1.21323,-1.21631,-0.00607,7.0648,0.00000,0.00070,0.00388,-4.0571,0.61018,0.60905,0.08139,1.0637,-1.21323,-1.21347,0.01415,4.3148,0.00000,-0.00719,-0.05038,11.5033,0.61018,0.61034,0.01938,-0.0495,-1.21323,-1.21186,0.00404,3.2242,0.00000,0.01203,-0.01550,-16.0057,0.61018,0.61092,-0.00775,-0.9895,-1.21323,-1.21323,-0.02831,4.8837
0.2840,B,-0.01339,-0.00040,-2.24400,-0.01065,-0.01172,-0.01598,0.18196,-0.21668,9.38886,-0.433871,0.003086,-0.005945,0.900950,79,30.571,10.562,101,15,34,15,0.00000,-0.00476,0.02713,7.8668,0.61018,0.60590,0.03100,4.7250,-1.21323,-1.21630,0.00000,7.0648,0.00000,0.00070,-0.00775,-4.0571,0.61018,0.60905,0.00388,1.0390,-1.21323,-1.21347,0.00404,4.4096,0.00000,-0.00713,0.03876,11.4291,0.61018,0.61028,0.00775,-0.0495,-1.21323,-1.21186,0.02022,3.2242,0.00000,0.01206,0.04263,-16.3273,0.61018,0.61092,0.00388,-0.8906,-1.21323,-1.21322,0.00000,4.8837
0.2860,B,-0.01335,-0.00044,-2.24405,0.00426,0.00213,-0.02024,0.22146,-0.17837,9.34218,-0.433847,0.003094,-0.005921,0.900962,79,30.571,10.562,101,15,34,15,0.00000,-0.00470,0.05813,7.8668,0.61018,0.60587,0.00388,4.5766,-1.21323,-1.21631,-0.02022,7.0174,0.00000,0.00070,-0.01938,-4.0818,0.61018,0.60905,0.03100,1.0885,-1.21323,-1.21347,-0.00202,4.3148,0.00000,-0.00713,0.00775,11.3796,0.61018,0.61034,0.03488,0.0000,-1.21323,-1.21187,-0.01011,3.2716,0.00000,0.01206,0.02325,-16.1046,0.61018,0.61092,0.03488,-0.8658,-1.21323,-1.21322,0.00607,4.9786
0.2880,B,-0.01334,-0.00046,-2.24409,0.00320,0.00320,-0.01704,0.22146,-0.17837,9.34218,-0.433831,0.003100,-0.005909,0.900970,79,30.571,10.665,101,15,34,15,0.00000,-0.00470,0.00000,7.7431,0.61018,0.60584,-0.05426,4.7498,-1.21323,-1.21631,-0.00202,7.0648,0.00000,0.00070,0.01550,-4.0076,0.61018,0.60902,0.00388,1.0885,-1.21323,-1.21347,0.00000,4.1251,0.00000,-0.00716,-0.03488,11.4786,0.61018,0.61031,-0.03488,0.0495,-1.21323,-1.21187,-0.01011,3.2716,0.00000,0.01206,0.03488,-16.2283,0.61018,0.61092,0.02713,-0.9648,-1.21323,-1.21323,-0.02022,4.9786
0.2900,B,-0.01330,-0.00048,-2.24413,-0.00107,-0.00746,-0.02983,0.22146,-0.17837,9.34218,-0.433811,0.003104,-0.005889,0.900980,79,30.571,10.665,101,15,34,15,0.00000,-0.00470,0.00000,7.7431,0.61018,0.60587,0.02325,4.7498,-1.21323,-1.21630,0.03437,7.0174,0.00000,0.00073,0.03876,-4.1560,0.61018,0.60905,0.03876,0.9648,-1.21323,-1.21347,0.02831,4.2674,0.00000,-0.00716,-0.03876,11.4786,0.61018,0.61034,-0.10464,-0.0247,-1.21323,-1.21187,-0.00607,3.2716,0.00000,0.01206,0.03100,-16.5499,0.61018,0.61092,0.05813,-0.7669,-1.21323,-1.21320,0.02629,4.8837
0.2920,B,-0.01326,-0.00052,-2.24418,0.01278,0.00107,-0.01917,0.14964,-0.18076,9.12909,-0.433788,0.003109,-0.005864,0.900991,79,30.571,10.596,101,15,34,15,0.00000,-0.00467,0.03876,7.7926,0.61018,0.60587,0.00775,4.7003,-1.21323,-1.21631,-0.00404,7.0174,0.00000,0.00073,0.05813,-4.0076,0.61018,0.60902,0.03876,1.2122,-1.21323,-1.21347,0.00000,4.2674,0.00000,-0.00722,-0.15502,11.3796,0.61018,0.61034,0.00388,-0.0495,-1.21323,-1.21186,0.02022,3.4139,0.00000,0.01194,-0.15502,-16.0304,0.61018,0.61089,-0.01938,-1.0637,-1.21323,-1.21325,-0.05459,4.8837
0.2940,B,-0.01325,-0.00052,-2.24421,0.00746,0.00107,-0.03196,0.14964,-0.18076,9.12909,-0.433775,0.003110,-0.005855,0.900997,79,30.571,10.631,101,15,34,15,0.00000,-0.00470,0.04651,7.9163,0.61018,0.60581,-0.09301,4.8240,-1.21323,-1.21631,-0.00404,7.0648,0.00000,0.00070,0.00000,-4.0571,0.61018,0.60902,0.00775,0.8658,-1.21323,-1.21347,-0.01011,4.3148,0.00000,-0.00719,-0.09689,11.3301,0.61018,0.61031,-0.03100,0.0495,-1.21323,-1.21186,0.03640,3.4139,0.00000,0.01194,-0.17052,-16.2778,0.61018,0.61089,0.02325,-0.8658,-1.21323,-1.21323,-0.02022,4.9786
0.2960,B,-0.01320,-0.00053,-2.24427,0.00746,0.01065,-0.02450,0.19872,-0.11612,9.23204,-0.433749,0.003102,-0.005834,0.901009,79,30.562,10.494,101,15,34,15,0.00000,-0.00461,0.12402,7.7926,0.61018,0.60587,0.01938,4.6755,-1.21323,-1.21631,-0.01011,7.0174,0.00000,0.00073,0.06201,-4.0571,0.61018,0.60902,-0.00388,1.0390,-1.21323,-1.21347,-0.01820,4.2674,0.00000,-0.00719,-0.09689,11.3301,0.61018,0.61034,0.01163,0.0742,-1.21323,-1.21187,-0.00809,3.2716,0.00000,0.01203,0.03488,-16.1788,0.61018,0.61089,0.02325,-0.8906,-1.21323,-1.21322,0.01011,4.9786
0.2980,B,-0.01321,-0.00052,-2.24429,-0.01065,0.01385,-0.02557,0.19872,-0.11612,9.23204,-0.433739,0.003101,-0.005836,0.901014,79,30.562,10.562,101,15,34,15,0.00000,-0.00461,0.09689,7.7183,0.61018,0.60587,0.01550,4.7250,-1.21323,-1.21630,0.02831,7.0648,0.00000,0.00070,-0.04651,-4.1066,0.61018,0.60905,0.08526,1.0390,-1.21323,-1.21347,-0.02022,4.3148,0.00000,-0.00716,-0.04263,11.4291,0.61018,0.61034,0.00000,0.0247,-1.21323,-1.21186,0.02224,3.3191,0.00000,0.01203,0.03488,-16.1788,0.61018,0.61095,0.09301,-0.9895,-1.21323,-1.21323,-0.02426,4.8837
0.3000,B,-0.01317,-0.00055,-2.24434,0.02024,0.00000,-0.03196,0.19872,-0.11612,9.23204,-0.433718,0.003101,-0.005813,0.901024,79,30.562,10.596,101,15,34,15,0.00000,-0.00464,0.03876,7.7431,0.61018,0.60584,-0.05813,4.7250,-1.21323,-1.21631,0.00607,7.0648,0.00000,0.00073,0.03876,-4.0076,0.61018,0.60902,0.03100,1.0885,-1.21323,-1.21347,-0.02629,4.2674,0.00000,-0.00713,0.03100,11.4786,0.61018,0.61034,0.00000,0.0247,-1.21323,-1.21187,0.00202,3.2716,0.00000,0.01206,0.06588,-16.3273,0.61018,0.61092,0.03876,-0.9648,-1.21323,-1.21320,0.03640,4.8837
0.3020,B,-0.01313,-0.00057,-2.24439,0.00746,0.00959,-0.01172,0.06584,-0.12091,9.24641,-0.433696,0.003103,-0.005794,0.901035,79,30.562,10.665,101,15,34,15,0.00000,-0.00467,-0.05813,7.7183,0.61018,0.60587,0.01938,4.7498,-1.21323,-1.21628,0.02831,7.0174,0.00000,0.00073,0.00000,-4.0076,0.61018,0.60908,0.09301,0.8906,-1.21323,-1.21347,0.01011,4.3148,0.00000,-0.00716,-0.01938,11.5775,0.61018,0.61034,0.00775,0.0247,-1.21323,-1.21187,-0.00607,3.2242,0.00000,0.01206,0.03488,-16.1541,0.61018,0.61092,-0.00775,-0.9895,-1.21323,-1.21322,0.00404,4.9786
0.3040,B,-0.01309,-0.00058,-2.24444,0.01917,0.00320,-0.03089,0.06584,-0.12091,9.24641,-0.433670,0.003098,-0.005770,0.901048,79,30.562,10.665,101,15,34,15,0.00000,-0.00464,-0.02325,7.6441,0.61018,0.60587,-0.02713,4.5766,-1.21323,-1.21631,0.00000,7.1123,0.00000,0.00076,0.05038,-4.0818,0.61018,0.60902,-0.03100,1.0637,-1.21323,-1.21347,-0.02022,4.2674,0.00000,-0.00713,0.05038,11.3796,0.61018,0.61034,0.00000,0.0000,-1.21323,-1.21187,-0.01011,3.3191,0.00000,0.01203,0.01163,-16.1788,0.61018,0.61092,0.00775,-0.8411,-1.21323,-1.21323,-0.03033,4.8837
0.3060,B,-0.01309,-0.00058,-2.24444,0.01917,0.00320,-0.03089,0.06584,-0.12091,9.24641,-0.433670,0.003098,-0.005770,0.901048,79,30.562,10.665,101,15,34,15,0.00000,-0.00464,-0.02325,7.6441,0.61018,0.60587,0.01163,4.8487,-1.21323,-1.21631,0.00000,7.1123,0.00000,0.00076,0.05038,-4.0818,0.61018,0.60908,0.09301,0.9648,-1.21323,-1.21347,-0.02022,4.2674,0.00000,-0.00713,0.05038,11.3796,0.61018,0.61031,-0.05426,-0.0495,-1.21323,-1.21187,0.00607,3.2242,0.00000,0.01194,-0.16277,-16.0304,0.61018,0.61098,0.09689,-1.1132,-1.21323,-1.21323,-0.03033,4.8837
0.3080,B,-0.01304,-0.00063,-2.24453,-0.00107,0.00639,-0.02131,0.08619,-0.05028,9.35415,-0.433631,0.003111,-0.005741,0.901067,79,30.571,10.494,101,15,34,15,0.00000,-0.00461,0.02713,7.7183,0.61018,0.60587,-0.03100,4.7003,-1.21323,-1.21633,-0.01820,7.0648,0.00000,0.00076,0.04651,-4.1066,0.61018,0.60908,0.03100,0.8658,-1.21323,-1.21348,-0.04853,4.3148,0.00000,-0.00716,0.00000,11.5528,0.61018,0.61031,-0.05813,-0.0247,-1.21323,-1.21189,-0.01011,3.3191,0.00000,0.01194,-0.15502,-16.0304,0.61018,0.61095,-0.01938,-1.0390,-1.21323,-1.21322,0.00404,4.9786
0.3100,B,-0.01300,-0.00064,-2.24457,0.01811,-0.00213,-0.02876,0.08619,-0.05028,9.35415,-0.433612,0.003107,-0.005719,0.901076,79,30.571,10.357,101,15,34,15,0.00000,-0.00464,-0.01550,7.7431,0.61018,0.60587,-0.01163,4.5271,-1.21323,-1.21633,-0.01618,7.0174,0.00000,0.00079,0.00775,-4.2797,0.61018,0.60908,0.03876,0.8906,-1.21323,-1.21347,-0.02022,4.3148,0.00000,-0.00713,0.03100,11.4291,0.61018,0.61031,-0.05813,0.0000,-1.21323,-1.21190,-0.03033,3.3191,0.00000,0.01206,0.05426,-16.3273,0.61018,0.61098,-0.01550,-1.1132,-1.21323,-1.21322,0.00000,4.8837
0.3120,B,-0.01298,-0.00065,-2.24459,0.01172,0.00213,-0.01811,0.05746,0.01437,9.47864,-0.433604,0.003105,-0.005708,0.901080,79,30.571,10.528,101,15,34,15,0.00000,-0.00461,0.02325,7.6194,0.61018,0.60593,-0.01938,4.5766,-1.21323,-1.21633,-0.01618,7.0174,0.00000,0.00073,-0.04651,-4.0818,0.61018,0.60911,0.05426,0.9401,-1.21323,-1.21347,-0.02426,4.2674,0.00000,-0.00719,-0.06201,11.5033,0.61018,0.61034,-0.00388,-0.0247,-1.21323,-1.21189,-0.00404,3.3191,0.00000,0.01203,-0.00775,-16.1046,0.61018,0.61095,0.01550,-0.9895,-1.21323,-1.21322,0.00809,4.9786
0.3140,B,-0.01297,-0.00062,-2.24464,-0.00639,0.02663,-0.02131,0.05746,0.01437,9.47864,-0.433584,0.003089,-0.005708,0.901090,79,30.571,10.665,101,15,34,15,0.00000,-0.00458,0.04651,7.7431,0.61018,0.60590,0.01163,4.5766,-1.21323,-1.21633,-0.01415,7.0174,0.00000,0.00079,0.00388,-4.3045,0.61018,0.60911,0.06588,0.8906,-1.21323,-1.21347,-0.02022,4.2674,0.00000,-0.00716,0.01938,11.4538,0.61018,0.61034,-0.00388,-0.0247,-1.21323,-1.21189,-0.00404,3.3191,0.00000,0.01197,0.06201,-16.1046,0.61018,0.61095,0.01550,-0.9895,-1.21323,-1.21323,-0.02426,4.9786
0.3160,B,-0.01293,-0.00063,-2.24471,-0.00533,0.01811,-0.02450,-0.02514,-0.01676,9.45829,-0.433549,0.003088,-0.005688,0.901107,79,30.562,10.562,101,15,34,15,0.00000,-0.00461,0.00775,7.7431,0.61018,0.60587,-0.08914,4.5024,-1.21323,-1.21634,-0.03437,7.0174,0.00000,0.00082,0.01938,-4.3292,0.61018,0.60914,0.04651,0.7916,-1.21323,-1.21347,-0.03033,4.2674,0.00000,-0.00716,0.03100,11.4786,0.61018,0.61034,0.00388,-0.0247,-1.21323,-1.21190,-0.01820,3.4139,0.00000,0.01206,0.06588,-16.4757,0.61018,0.61095,-0.05426,-0.8658,-1.21323,-1.21320,0.03235,4.9786
0.3180,B,-0.01293,-0.00062,-2.24472,-0.00852,0.02024,-0.00852,-0.02514,-0.01676,9.45829,-0.433546,0.003082,-0.005689,0.901108,79,30.571,10.494,101,15,34,15,0.00000,-0.00461,-0.02713,7.6441,0.61018,0.60590,-0.03876,4.7003,-1.21323,-1.21631,0.02224,7.0648,0.00000,0.00082,-0.01550,-4.2055,0.61018,0.60908,-0.06976,0.9401,-1.21323,-1.21347,-0.02022,4.3148,0.00000,-0.00713,0.08139,11.4291,0.61018,0.61028,-0.09301,0.0247,-1.21323,-1.21189,0.00404,3.2716,0.00000,0.01206,0.05813,-16.3520,0.61018,0.61104,0.05038,-1.3853,-1.21323,-1.21323,-0.03033,4.9786
0.3200,B,-0.01289,-0.00060,-2.24477,-0.00107,0.02983,-0.02237,-0.02514,-0.01676,9.45829,-0.433525,0.003063,-0.005677,0.901118,79,30.562,10.665,101,15,34,15,0.00000,-0.00461,0.01550,7.7183,0.61018,0.60593,-0.03876,4.6755,-1.21323,-1.21631,-0.02022,7.0174,0.00000,0.00086,0.03876,-4.3292,0.61018,0.60914,0.09301,0.7916,-1.21323,-1.21345,0.00809,4.3148,0.00000,-0.00719,-0.01938,11.5033,0.61018,0.61034,-0.02713,-0.0495,-1.21323,-1.21190,-0.01011,3.3191,0.00000,0.01206,0.07751,-16.3273,0.61018,0.61104,0.00000,-0.9895,-1.21323,-1.21322,0.00000,4.9786
0.3220,B,-0.01286,-0.00061,-2.24481,0.00426,-0.01917,-0.02876,0.04429,0.05507,9.73004,-0.433507,0.003062,-0.005664,0.901127,79,30.562,10.528,101,15,34,15,0.00000,-0.00455,0.03488,7.6936,0.61018,0.60596,-0.00388,4.4282,-1.21323,-1.21633,0.00809,6.9700,0.00000,0.00089,0.08526,-4.1560,0.61018,0.60917,0.03100,0.7421,-1.21323,-1.21345,0.01011,4.3148,0.00000,-0.00716,0.03100,11.5528,0.61018,0.61034,-0.02713,-0.0495,-1.21323,-1.21189,0.02629,3.2716,0.00000,0.01206,0.07363,-16.3520,0.61018,0.61104,0.06976,-0.9895,-1.21323,-1.21320,0.02022,4.8837
0.3240,B,-0.01283,-0.00062,-2.24485,0.00320,0.01065,-0.02131,0.04429,0.05507,9.73004,-0.433487,0.003060,-0.005646,0.901137,79,30.562,10.562,101,15,35,15,0.00000,-0.00461,-0.01550,7.8173,0.61018,0.60596,-0.01938,4.5766,-1.21323,-1.21633,0.01618,7.0648,0.00000,0.00089,0.05038,-4.2302,0.61018,0.60917,0.01550,0.8658,-1.21323,-1.21347,-0.02022,4.3148,0.00000,-0.00716,0.01163,11.4786,0.61018,0.61028,-0.10464,-0.0247,-1.21323,-1.21190,0.00404,3.4613,0.00000,0.01194,-0.17052,-16.0304,0.61018,0.61101,-0.07363,-1.0637,-1.21323,-1.21320,0.02629,4.9786
0.3260,B,-0.01280,-0.00064,-2.24490,0.00639,-0.01278,-0.02663,-0.06464,0.08260,9.71806,-0.433466,0.003062,-0.005629,0.901147,79,30.571,10.528,101,15,35,15,0.00000,-0.00455,0.08914,7.6936,0.61018,0.60593,-0.07363,4.4776,-1.21323,-1.21633,-0.00404,7.1123,0.00000,0.00089,0.04651,-4.1808,0.61018,0.60920,0.06588,0.8658,-1.21323,-1.21347,-0.02022,4.3148,0.00000,-0.00719,-0.01163,11.4538,0.61018,0.61031,-0.05426,-0.0247,-1.21323,-1.21190,0.01011,3.2716,0.00000,0.01206,0.03488,-16.3767,0.61018,0.61110,0.02325,-1.2617,-1.21323,-1.21322,-0.01415,4.9786
0.3280,B,-0.01280,-0.00064,-2.24492,-0.01491,0.00852,-0.01172,-0.06464,0.08260,9.71806,-0.433456,0.003063,-0.005627,0.901152,79,30.562,10.562,101,15,35,15,0.00000,-0.00461,-0.04263,7.6194,0.61018,0.60599,0.00000,4.5024,-1.21323,-1.21631,0.05055,7.1123,0.00000,0.00089,0.02713,-4.2797,0.61018,0.60917,-0.01938,0.9648,-1.21323,-1.21347,-0.02022,4.3148,0.00000,-0.00719,-0.03100,11.4786,0.61018,0.61031,-0.05813,-0.0495,-1.21323,-1.21189,0.03033,3.2242,0.00000,0.01206,0.06976,-16.1294,0.61018,0.61107,0.00000,-0.9895,-1.21323,-1.21322,-0.00809,4.9786
0.3300,B,-0.01278,-0.00063,-2.24494,0.00000,0.01491,-0.02344,-0.06464,0.08260,9.71806,-0.433446,0.003057,-0.005623,0.901157,79,30.571,10.528,101,15,34,15,0.00000,-0.00464,-0.08914,7.7183,0.61018,0.60599,-0.01938,4.4034,-1.21323,-1.21633,0.01820,7.0174,0.00000,0.00089,0.01550,-4.3292,0.61018,0.60917,-0.01938,0.8658,-1.21323,-1.21347,-0.02831,4.3148,0.00000,-0.00719,-0.02325,11.5528,0.61018,0.61034,-0.03876,0.0000,-1.21323,-1.21190,0.01213,3.4139,0.00000,0.01197,-0.09689,-16.2283,0.61018,0.61110,0.00388,-1.2617,-1.21323,-1.21320,0.02022,4.8837
0.3320,B,-0.01278,-0.00063,-2.24496,-0.00107,0.00213,-0.00639,-0.03232,0.03352,9.72644,-0.433440,0.003052,-0.005621,0.901160,79,30.571,10.596,101,15,34,15,0.00000,-0.00458,0.00388,7.6194,0.61018,0.60602,-0.02325,4.4282,-1.21323,-1.21633,0.03235,7.1123,0.00000,0.00089,0.00775,-4.2055,0.61018,0.60923,0.06201,0.8906,-1.21323,-1.21347,-0.02022,4.3148,0.00000,-0.00716,0.02325,11.5033,0.61018,0.61034,-0.03876,0.0000,-1.21323,-1.21190,0.00809,3.3191,0.00000,0.01200,-0.03488,-16.3273,0.61018,0.61113,0.05426,-1.1132,-1.21323,-1.21320,0.02224,4.9786
0.3340,B,-0.01275,-0.00062,-2.24498,-0.00107,0.00959,-0.01385,-0.03232,0.03352,9.72644,-0.433431,0.003041,-0.005611,0.901164,79,30.571,10.596,101,15,34,15,0.00000,-0.00455,0.08139,7.8173,0.61018,0.60605,0.02325,4.4282,-1.21323,-1.21634,-0.00607,7.0174,0.00000,0.00089,0.00000,-4.3045,0.61018,0.60923,0.02325,0.7421,-1.21323,-1.21345,0.00809,4.3148,0.00000,-0.00716,-0.01550,11.3796,0.61018,0.61037,0.02325,0.0742,-1.21323,-1.21190,0.01618,3.2716,0.00000,0.01200,-0.01938,-16.0304,0.61018,0.61113,-0.00388,-1.3606,-1.21323,-1.21323,-0.04044,4.8837
0.3380,B,-0.01275,-0.00061,-2.24499,-0.01278,0.00852,-0.01704,-0.03232,0.03352,9.72644,-0.433424,0.003040,-0.005612,0.901168,79,30.562,10.494,101,15,34,15,0.00000,-0.00455,0.06976,7.6194,0.61018,0.60605,-0.03876,4.4282,-1.21323,-1.21634,-0.00404,7.0648,0.00000,0.00089,-0.00388,-4.1808,0.61018,0.60926,0.04651,0.8411,-1.21323,-1.21347,-0.02224,4.3148,0.00000,-0.00716,-0.00388,11.4538,0.61018,0.61037,0.01163,-0.0247,-1.21323,-1.21192,-0.00607,3.3191,0.00000,0.01206,0.10076,-16.1788,0.61018,0.61116,0.05038,-1.1627,-1.21323,-1.21322,-0.02022,4.8837
0.3400,B,-0.01269,-0.00059,-2.24500,0.00320,0.00107,-0.00213,-0.09577,0.11732,9.63187,-0.433420,0.003017,-0.005590,0.901170,79,30.571,10.460,101,15,34,15,0.00000,-0.00458,0.00000,7.6194,0.61018,0.60611,0.00775,4.3292,-1.21323,-1.21634,0.00000,7.1123,0.00000,0.00095,0.08526,-4.3045,0.61018,0.60929,0.02325,0.6432,-1.21323,-1.21347,-0.02224,4.3148,0.00000,-0.00716,-0.02713,11.5528,0.61018,0.61037,0.02325,-0.0742,-1.21323,-1.21192,-0.01011,3.2716,0.00000,0.01194,-0.12014,-16.0551,0.61018,0.61116,0.03876,-1.1132,-1.21323,-1.21323,-0.03842,4.8837
0.3420,B,-0.01269,-0.00060,-2.24500,-0.01598,0.00000,-0.00533,-0.07542,0.11013,9.57920,-0.433418,0.003020,-0.005590,0.901171,79,30.571,10.460,101,15,34,15,0.00000,-0.00458,-0.00775,7.7926,0.61018,0.60611,-0.02325,4.1808,-1.21323,-1.21633,0.02224,7.0648,0.00000,0.00095,0.08526,-4.3045,0.61018,0.60926,0.00000,0.7916,-1.21323,-1.21347,-0.02629,4.3148,0.00000,-0.00719,-0.06588,11.4538,0.61018,0.61034,-0.03876,-0.0247,-1.21323,-1.21190,0.02224,3.3191,0.00000,0.01191,-0.18215,-16.1788,0.61018,0.61122,0.05813,-1.3853,-1.21323,-1.21323,-0.03842,4.8837
0.3440,B,-0.01267,-0.00059,-2.24498,-0.01172,0.00746,0.01172,-0.07542,0.11013,9.57920,-0.433428,0.003014,-0.005583,0.901166,79,30.571,10.562,101,15,34,15,0.00000,-0.00455,0.03876,7.5452,0.61018,0.60614,0.02713,4.2055,-1.21323,-1.21634,-0.00809,7.0648,0.00000,0.00092,0.02713,-4.2797,0.61018,0.60932,0.05038,0.6679,-1.21323,-1.21347,-0.02022,4.3148,0.00000,-0.00719,-0.10851,11.3796,0.61018,0.61034,-0.04651,0.0000,-1.21323,-1.21192,-0.01011,3.2716,0.00000,0.01203,0.05038,-16.2283,0.61018,0.61116,-0.04263,-1.2617,-1.21323,-1.21320,0.01011,4.9786
0.3460,B,-0.01268,-0.00059,-2.24497,-0.02237,0.01811,0.00426,-0.08499,0.06225,9.56723,-0.433432,0.003014,-0.005586,0.901164,79,30.571,10.562,101,15,34,15,0.00000,-0.00458,-0.03488,7.7926,0.61018,0.60617,-0.02325,4.2797,-1.21323,-1.21633,0.02022,7.0648,0.00000,0.00092,0.04651,-4.1560,0.61018,0.60932,0.10464,0.7421,-1.21323,-1.21344,0.02831,4.2674,0.00000,-0.00713,0.00000,11.4291,0.61018,0.61037,0.01938,0.0247,-1.21323,-1.21190,0.02022,3.3191,0.00000,0.01200,0.00775,-15.9067,0.61018,0.61128,0.09689,-1.2864,-1.21323,-1.21322,-0.02022,4.9786
0.3480,B,-0.01268,-0.00058,-2.24497,-0.00959,0.01172,-0.00320,-0.08499,0.06225,9.56723,-0.433432,0.003010,-0.005585,0.901164,79,30.571,10.528,101,15,34,15,0.00000,-0.00461,-0.06588,7.7926,0.61018,0.60623,0.04651,4.2055,-1.21323,-1.21633,0.02426,7.0648,0.00000,0.00092,0.03488,-4.2797,0.61018,0.60932,0.10464,0.7421,-1.21323,-1.21344,0.02831,4.2674,0.00000,-0.00716,-0.07751,11.3796,0.61018,0.61034,-0.02325,0.0247,-1.21323,-1.21190,0.02022,3.3191,0.00000,0.01200,0.02325,-16.1046,0.61018,0.61128,0.09689,-1.2864,-1.21323,-1.21322,-0.01820,5.0260
0.3500,B,-0.01265,-0.00062,-2.24496,-0.01172,-0.00852,0.01598,-0.08499,0.06225,9.56723,-0.433437,0.003023,-0.005567,0.901162,79,30.571,10.494,101,15,34,15,0.00000,-0.00455,0.01550,7.6441,0.61018,0.60623,0.00000,4.3045,-1.21323,-1.21631,-0.00607,7.0648,0.00000,0.00089,-0.01938,-4.2302,0.61018,0.60935,0.03876,0.5937,-1.21323,-1.21344,0.01213,4.2674,0.00000,-0.00716,-0.06201,11.3796,0.61018,0.61034,-0.05426,-0.0742,-1.21323,-1.21190,0.02022,3.2716,0.00000,0.01203,0.05813,-16.3767,0.61018,0.61131,0.09689,-1.3853,-1.21323,-1.21322,0.01011,4.9786
0.3540,B,-0.01263,-0.00063,-2.24494,-0.00639,0.00533,0.01172,-0.12091,0.04788,9.45829,-0.433447,0.003024,-0.005554,0.901157,79,30.571,10.596,101,15,34,15,0.00000,-0.00455,0.03488,7.7431,0.61018,0.60626,-0.02325,4.1560,-1.21323,-1.21631,0.02022,7.0648,0.00000,0.00089,0.00000,-4.3045,0.61018,0.60935,0.00000,0.6679,-1.21323,-1.21345,-0.01415,4.3148,0.00000,-0.00713,-0.04651,11.2807,0.61018,0.61037,-0.05426,-0.0742,-1.21323,-1.21190,0.02022,3.2716,0.00000,0.01200,0.03876,-16.2531,0.61018,0.61131,0.02325,-1.3111,-1.21323,-1.21320,0.01011,5.0260
0.3560,B,-0.01261,-0.00065,-2.24490,-0.01278,-0.00746,0.00959,-0.10774,0.04190,9.46069,-0.433464,0.003026,-0.005544,0.901149,79,30.571,10.494,101,15,34,15,0.00000,-0.00455,0.03876,7.6936,0.61018,0.60635,0.07751,4.1560,-1.21323,-1.21634,-0.01415,7.0648,0.00000,0.00089,0.00775,-4.1066,0.61018,0.60935,-0.01163,0.5937,-1.21323,-1.21344,0.00000,4.3148,0.00000,-0.00710,0.02713,11.2807,0.61018,0.61034,-0.03876,-0.0247,-1.21323,-1.21190,0.00202,3.2716,0.00000,0.01191,-0.14339,-16.1788,0.61018,0.61137,0.03876,-1.5090,-1.21323,-1.21320,0.00000,4.8837
0.3580,B,-0.01260,-0.00064,-2.24490,-0.00426,0.00320,-0.00213,-0.10774,0.04190,9.46069,-0.433466,0.003020,-0.005536,0.901148,79,30.571,10.528,101,15,34,15,0.00000,-0.00455,0.04263,7.6936,0.61018,0.60635,-0.01163,4.0571,-1.21323,-1.21634,-0.01618,7.0174,0.00000,0.00089,-0.01938,-4.2302,0.61018,0.60938,-0.03876,0.5690,-1.21323,-1.21344,0.00202,4.2674,0.00000,-0.00707,0.01550,11.3796,0.61018,0.61034,-0.04263,-0.0495,-1.21323,-1.21192,-0.02022,3.3191,0.00000,0.01194,-0.06976,-16.2283,0.61018,0.61137,0.04263,-1.4101,-1.21323,-1.21322,-0.03033,4.8837
0.3600,B,-0.01260,-0.00064,-2.24488,-0.01598,0.00746,0.01491,-0.10774,0.04190,9.46069,-0.433474,0.003019,-0.005538,0.901144,79,30.580,10.460,101,15,34,14,0.00000,-0.00455,0.04651,7.6194,0.61018,0.60641,0.00775,3.9086,-1.21323,-1.21633,0.01213,7.0174,0.00000,0.00092,0.06201,-4.1560,0.61018,0.60944,0.04263,0.5937,-1.21323,-1.21345,-0.03033,4.2674,0.00000,-0.00713,-0.09301,11.3796,0.61018,0.61034,-0.04263,-0.0495,-1.21323,-1.21189,0.03033,3.3191,0.00000,0.01197,-0.01550,-15.8572,0.61018,0.61137,0.02325,-1.5090,-1.21323,-1.21320,-0.00404,4.8837
0.3620,B,-0.01257,-0.00065,-2.24484,0.00000,0.01811,0.01811,-0.17358,0.03112,9.33499,-0.433491,0.003018,-0.005524,0.901136,79,30.571,10.425,101,15,34,14,0.00000,-0.00458,-0.00388,7.7431,0.61018,0.60644,0.02713,3.9829,-1.21323,-1.21631,-0.02224,6.9700,0.00000,0.00095,0.08526,-4.2302,0.61018,0.60944,0.00388,0.5937,-1.21323,-1.21342,0.02629,4.3148,0.00000,-0.00704,0.01163,11.1322,0.61018,0.61037,-0.00775,0.0247,-1.21323,-1.21190,0.00000,3.3191,0.00000,0.01197,-0.01938,-16.2531,0.61018,0.61143,0.03488,-1.6327,-1.21323,-1.21320,-0.00404,5.0260
0.3640,B,-0.01258,-0.00065,-2.24483,-0.01811,-0.00320,0.00533,-0.17358,0.03112,9.33499,-0.433496,0.003019,-0.005529,0.901133,79,30.580,10.357,101,15,34,14,0.00000,-0.00461,-0.02713,7.9163,0.61018,0.60647,0.00775,3.8592,-1.21323,-1.21631,-0.02224,6.9700,0.00000,0.00089,-0.00388,-4.2055,0.61018,0.60944,-0.03488,0.5195,-1.21323,-1.21344,-0.00809,4.3148,0.00000,-0.00707,-0.03488,11.3549,0.61018,0.61034,-0.05813,-0.0247,-1.21323,-1.21190,0.00607,3.3191,0.00000,0.01200,0.02325,-16.2283,0.61018,0.61143,0.01938,-1.4843,-1.21323,-1.21322,-0.03235,4.8837
0.3660,B,-0.01257,-0.00064,-2.24482,-0.00639,0.00746,0.00852,-0.17358,0.03112,9.33499,-0.433501,0.003015,-0.005526,0.901131,79,30.571,10.425,101,15,34,14,0.00000,-0.00458,-0.00388,7.5947,0.61018,0.60650,-0.00388,3.7850,-1.21323,-1.21633,0.01213,7.0174,0.00000,0.00089,0.00000,-4.3045,0.61018,0.60947,0.01163,0.4700,-1.21323,-1.21344,-0.03033,4.2674,0.00000,-0.00704,0.02713,11.4291,0.61018,0.61037,0.00000,-0.0495,-1.21323,-1.21190,0.00000,3.4139,0.00000,0.01194,-0.06201,-16.0551,0.61018,0.61146,0.01550,-1.6080,-1.21323,-1.21322,-0.03437,4.8837
0.3680,B,-0.01260,-0.00063,-2.24480,-0.02876,0.00213,0.00746,-0.22027,0.04669,9.33978,-0.433511,0.003017,-0.005540,0.901126,79,30.580,10.357,101,15,34,15,0.00000,-0.00461,-0.02325,7.7431,0.61018,0.60650,-0.09689,3.8097,-1.21323,-1.21633,0.01415,7.1123,0.00000,0.00089,-0.01163,-4.2797,0.61018,0.60950,0.03488,0.4700,-1.21323,-1.21344,-0.02831,4.2674,0.00000,-0.00704,0.01163,11.2312,0.61018,0.61037,-0.01163,-0.0247,-1.21323,-1.21190,-0.02224,3.3191,0.00000,0.01197,-0.01550,-16.2531,0.61018,0.61146,0.00775,-1.3853,-1.21323,-1.21320,-0.00404,4.8837
0.3700,B,-0.01260,-0.00061,-2.24478,-0.01065,0.01491,0.01065,-0.22027,0.04669,9.33978,-0.433518,0.003004,-0.005546,0.901123,79,30.580,10.323,101,15,34,15,0.00000,-0.00464,-0.06201,7.7926,0.61018,0.60653,-0.06201,3.8592,-1.21323,-1.21631,0.04853,7.0648,0.00000,0.00092,0.05426,-4.2055,0.61018,0.60950,0.03876,0.4453,-1.21323,-1.21344,-0.02224,4.3148,0.00000,-0.00704,0.01938,11.5033,0.61018,0.61040,0.02713,-0.0742,-1.21323,-1.21192,-0.02831,3.2716,0.00000,0.01203,0.13952,-16.2283,0.61018,0.61152,0.07363,-1.6822,-1.21323,-1.21320,-0.01415,4.8837
0.3720,B,-0.01260,-0.00059,-2.24477,-0.01385,0.01491,0.01065,-0.21787,-0.00239,9.33858,-0.433523,0.002998,-0.005549,0.901120,79,30.580,10.425,101,15,33,15,0.00000,-0.00458,0.03100,7.5947,0.61018,0.60662,0.05813,3.8592,-1.21323,-1.21634,-0.02022,7.0174,0.00000,0.00089,0.00000,-4.1808,0.61018,0.60953,0.07751,0.3711,-1.21323,-1.21341,0.03437,4.4096,0.00000,-0.00704,0.00775,11.2559,0.61018,0.61040,0.02713,-0.0742,-1.21323,-1.21189,0.02831,3.3191,0.00000,0.01200,0.05038,-16.2531,0.61018,0.61152,0.05813,-1.5090,-1.21323,-1.21320,-0.02022,4.8837
0.3740,B,-0.01260,-0.00057,-2.24474,-0.01385,-0.00852,0.00852,-0.21787,-0.00239,9.33858,-0.433537,0.002989,-0.005555,0.901114,79,30.580,10.357,101,15,33,15,0.00000,-0.00455,0.11627,7.7431,0.61018,0.60662,0.01163,3.8097,-1.21323,-1.21634,-0.01415,7.0648,0.00000,0.00092,0.05813,-4.2055,0.61018,0.60953,0.02713,0.5195,-1.21323,-1.21342,0.00202,4.3148,0.00000,-0.00707,-0.08139,11.2312,0.61018,0.61034,-0.06201,-0.0495,-1.21323,-1.21189,0.03235,3.2716,0.00000,0.01185,-0.22090,-16.1541,0.61018,0.61149,-0.04263,-1.6080,-1.21323,-1.21320,-0.01415,4.8837
0.3760,B,-0.01262,-0.00056,-2.24473,-0.02237,0.00746,0.00000,-0.38547,-0.02514,9.30387,-0.433541,0.002988,-0.005562,0.901112,79,30.571,10.425,101,15,33,15,0.00000,-0.00458,0.00000,7.7926,0.61018,0.60666,0.00000,3.7107,-1.21323,-1.21634,-0.02224,7.0174,0.00000,0.00089,-0.01550,-4.3045,0.61018,0.60950,-0.05426,0.5195,-1.21323,-1.21344,-0.02629,4.2674,0.00000,-0.00704,-0.00775,11.3301,0.61018,0.61037,-0.05813,-0.1237,-1.21323,-1.21189,0.03033,3.3191,0.00000,0.01197,0.03100,-16.1046,0.61018,0.61158,0.03876,-1.7069,-1.21323,-1.21318,-0.02022,5.0260
0.3780,B,-0.01262,-0.00054,-2.24473,-0.02024,0.01917,0.00000,-0.38547,-0.02514,9.30387,-0.433542,0.002981,-0.005569,0.901111,79,30.580,10.289,101,15,33,15,0.00000,-0.00458,0.06201,7.7431,0.61018,0.60672,0.06201,3.6860,-1.21323,-1.21633,0.01618,7.0174,0.00000,0.00089,0.00000,-4.2055,0.61018,0.60959,0.03876,0.3711,-1.21323,-1.21344,-0.02022,4.2674,0.00000,-0.00701,0.01163,11.2312,0.61018,0.61040,0.00000,-0.0495,-1.21323,-1.21189,0.02224,3.2716,0.00000,0.01194,-0.03876,-15.9315,0.61018,0.61155,0.02325,-1.5090,-1.21323,-1.21320,-0.02022,5.0260
0.3800,B,-0.01264,-0.00049,-2.24472,-0.01385,0.02983,0.00959,-0.38547,-0.02514,9.30387,-0.433547,0.002958,-0.005589,0.901109,79,30.580,10.391,101,15,33,15,0.00000,-0.00461,0.02713,7.8420,0.61018,0.60675,0.05813,3.6365,-1.21323,-1.21631,0.03437,7.0174,0.00000,0.00089,-0.00388,-4.1808,0.61018,0.60959,0.03488,0.4206,-1.21323,-1.21344,-0.01618,4.3148,0.00000,-0.00701,0.02325,11.2807,0.61018,0.61034,-0.13952,-0.0495,-1.21323,-1.21190,-0.00404,3.4139,0.00000,0.01200,0.06976,-16.2283,0.61018,0.61158,0.00388,-1.7812,-1.21323,-1.21318,0.01011,4.8837
0.3820,B,-0.01265,-0.00043,-2.24470,-0.02237,0.02983,0.00959,-0.38786,-0.04190,9.46548,-0.433554,0.002936,-0.005607,0.901105,79,30.571,10.391,101,15,33,15,0.00000,-0.00461,0.06976,7.8420,0.61018,0.60678,0.01938,3.7602,-1.21323,-1.21631,0.02831,7.0648,0.00000,0.00092,0.04263,-4.2055,0.61018,0.60959,0.01550,0.2721,-1.21323,-1.21344,-0.01415,4.2674,0.00000,-0.00701,-0.00388,11.2807,0.61018,0.61040,-0.01550,-0.0495,-1.21323,-1.21189,0.02022,3.3191,0.00000,0.01197,0.00388,-16.0304,0.61018,0.61158,0.04263,-1.6080,-1.21323,-1.21318,0.01011,5.0260
0.3840,B,-0.01265,-0.00041,-2.24470,-0.01491,0.01917,0.00320,-0.38786,-0.04190,9.46548,-0.433557,0.002928,-0.005612,0.901104,79,30.571,10.425,101,15,33,15,0.00000,-0.00464,0.01163,7.8420,0.61018,0.60675,-0.02713,3.6613,-1.21323,-1.21631,0.03437,7.0648,0.00000,0.00089,-0.01938,-4.2302,0.61018,0.60959,0.00000,0.4206,-1.21323,-1.21344,-0.02022,4.4096,0.00000,-0.00704,-0.06976,11.2312,0.61018,0.61043,-0.00775,-0.1237,-1.21323,-1.21190,-0.01011,3.2716,0.00000,0.01194,-0.03488,-15.9315,0.61018,0.61161,0.02713,-1.6822,-1.21323,-1.21318,0.00202,4.8837
0.3860,B,-0.01265,-0.00038,-2.24469,-0.01598,0.00533,0.00000,-0.47764,-0.01556,9.30028,-0.433562,0.002916,-0.005618,0.901102,79,30.571,10.494,101,15,33,15,0.00000,-0.00464,0.01163,7.8420,0.61018,0.60678,-0.03100,3.5871,-1.21323,-1.21633,-0.00404,7.0174,0.00000,0.00089,-0.01938,-4.2302,0.61018,0.60959,-0.03488,0.3463,-1.21323,-1.21344,-0.02022,4.2674,0.00000,-0.00704,-0.06976,11.2312,0.61018,0.61043,0.01163,-0.1237,-1.21323,-1.21189,0.02426,3.2716,0.00000,0.01194,-0.03488,-15.9315,0.61018,0.61165,0.06588,-1.8059,-1.21323,-1.21322,-0.01415,5.0260
0.3880,B,-0.01265,-0.00035,-2.24468,0.00107,0.01598,0.01172,-0.47764,-0.01556,9.30028,-0.433567,0.002901,-0.005624,0.901099,79,30.571,10.323,101,15,33,15,0.00000,-0.00467,-0.00388,7.8420,0.61018,0.60681,-0.03488,3.6613,-1.21323,-1.21634,-0.02224,7.0174,0.00000,0.00089,-0.03100,-4.3292,0.61018,0.60965,0.05426,0.3711,-1.21323,-1.21344,-0.01415,4.3148,0.00000,-0.00704,-0.08139,11.2559,0.61018,0.61043,-0.01163,-0.1732,-1.21323,-1.21189,0.01820,3.2716,0.00000,0.01197,0.06201,-15.7335,0.61018,0.61165,0.03876,-1.7069,-1.21323,-1.21318,0.00607,4.9786
0.3900,B,-0.01264,-0.00034,-2.24467,0.00000,0.01385,0.00426,-0.47764,-0.01556,9.30028,-0.433570,0.002891,-0.005621,0.901098,79,30.571,10.357,101,15,33,15,0.00000,-0.00467,0.02713,7.8173,0.61018,0.60687,0.02325,3.4386,-1.21323,-1.21633,0.01415,7.0648,0.00000,0.00092,0.03876,-4.2302,0.61018,0.60965,0.01938,0.2721,-1.21323,-1.21344,-0.01415,4.3148,0.00000,-0.00704,-0.09689,11.2807,0.61018,0.61046,0.01163,-0.1732,-1.21323,-1.21190,-0.01011,3.2716,0.00000,0.01191,-0.08914,-16.1046,0.61018,0.61165,0.01550,-1.7069,-1.21323,-1.21318,0.00809,4.9786
0.3920,B,-0.01263,-0.00031,-2.24466,0.00000,0.00639,0.00533,-0.47285,-0.04190,9.58519,-0.433574,0.002876,-0.005625,0.901096,79,30.571,10.425,101,15,33,15,0.00000,-0.00470,0.01938,7.9410,0.61018,0.60687,-0.00388,3.6613,-1.21323,-1.21631,0.04853,7.0648,0.00000,0.00092,0.03100,-4.3045,0.61018,0.60968,0.05426,0.3216,-1.21323,-1.21344,-0.01415,4.3148,0.00000,-0.00701,-0.04651,11.3796,0.61018,0.61040,-0.08526,-0.0247,-1.21323,-1.21190,-0.01011,3.3191,0.00000,0.01200,0.11627,-16.1541,0.61018,0.61171,0.05813,-1.8306,-1.21323,-1.21318,-0.00202,4.8363
0.3940,B,-0.01264,-0.00029,-2.24466,-0.02237,0.01172,0.00107,-0.47285,-0.04190,9.58519,-0.433575,0.002872,-0.005633,0.901095,79,30.571,10.357,101,15,33,15,0.00000,-0.00470,0.01938,7.9410,0.61018,0.60690,-0.00775,3.5623,-1.21323,-1.21631,0.04853,7.0648,0.00000,0.00092,0.03100,-4.3045,0.61018,0.60962,-0.04263,0.3463,-1.21323,-1.21345,-0.04246,4.3148,0.00000,-0.00701,-0.04651,11.3796,0.61018,0.61043,-0.05426,-0.2226,-1.21323,-1.21189,-0.00809,3.2716,0.00000,0.01200,0.11627,-16.1541,0.61018,0.61171,0.05813,-1.8306,-1.21323,-1.21318,-0.00202,4.8363
0.3960,B,-0.01266,-0.00027,-2.24466,-0.00746,0.00213,-0.00426,-0.47285,-0.04190,9.58519,-0.433575,0.002867,-0.005643,0.901096,79,30.580,10.357,101,15,33,15,0.00000,-0.00470,0.03876,7.8173,0.61018,0.60690,-0.02325,3.6613,-1.21323,-1.21631,0.04044,7.0648,0.00000,0.00092,0.04263,-4.2302,0.61018,0.60968,-0.02713,0.3463,-1.21323,-1.21342,0.01820,4.2674,0.00000,-0.00701,-0.02325,11.4786,0.61018,0.61043,-0.03876,-0.1237,-1.21323,-1.21189,0.02426,3.2716,0.00000,0.01194,-0.01938,-16.1541,0.61018,0.61171,0.02325,-1.6327,-1.21323,-1.21318,-0.00202,4.8837
0.3980,B,-0.01271,-0.00019,-2.24465,-0.01491,0.02557,0.00959,-0.57820,-0.01197,9.38886,-0.433578,0.002843,-0.005687,0.901094,79,30.571,10.357,101,15,33,15,0.00000,-0.00473,-0.01163,7.8668,0.61018,0.60693,-0.01938,3.4881,-1.21323,-1.21634,-0.01820,7.0648,0.00000,0.00092,0.03876,-4.2797,0.61018,0.60968,0.00000,0.3463,-1.21323,-1.21345,-0.04246,4.1251,0.00000,-0.00701,-0.06588,11.2559,0.61018,0.61043,-0.06976,-0.1484,-1.21323,-1.21187,-0.00404,3.3191,0.00000,0.01191,-0.04651,-15.7583,0.61018,0.61174,0.03488,-1.9296,-1.21323,-1.21318,0.01820,4.8837
0.4000,B,-0.01272,-0.00014,-2.24464,-0.02131,0.02876,0.00746,-0.57820,-0.01197,9.38886,-0.433585,0.002820,-0.005699,0.901090,79,30.580,10.460,101,15,33,15,0.00000,-0.00473,0.02713,7.9657,0.61018,0.60693,-0.06201,3.4881,-1.21323,-1.21634,-0.01011,7.0174,0.00000,0.00092,0.02325,-4.2797,0.61018,0.60974,0.06588,0.2474,-1.21323,-1.21342,-0.01618,4.3148,0.00000,-0.00701,-0.06588,11.3796,0.61018,0.61049,0.02325,-0.2226,-1.21323,-1.21190,-0.01213,3.2716,0.00000,0.01185,-0.16665,-16.0304,0.61018,0.61171,0.00000,-1.7069,-1.21323,-1.21318,-0.00404,4.8837
0.4020,B,-0.01272,-0.00014,-2.24463,-0.01917,-0.00107,0.00746,-0.57700,-0.01317,9.58519,-0.433589,0.002820,-0.005703,0.901088,79,30.571,10.323,101,15,33,15,0.00000,-0.00473,0.02325,7.7926,0.61018,0.60696,-0.06201,3.4881,-1.21323,-1.21634,-0.01011,7.0648,0.00000,0.00089,-0.00775,-4.1808,0.61018,0.60974,0.03876,0.2226,-1.21323,-1.21344,-0.00607,4.2674,0.00000,-0.00695,0.05813,11.3301,0.61018,0.61046,-0.06588,-0.2226,-1.21323,-1.21187,0.00809,3.2716,0.00000,0.01185,-0.13177,-15.8572,0.61018,0.61180,0.10464,-2.0285,-1.21323,-1.21317,0.00809,4.8363
0.4040,B,-0.01273,-0.00012,-2.24461,-0.01491,0.00426,0.00320,-0.57700,-0.01317,9.58519,-0.433599,0.002816,-0.005709,0.901084,79,30.571,10.357,101,15,33,15,0.00000,-0.00473,0.05038,7.9163,0.61018,0.60696,-0.06201,3.4881,-1.21323,-1.21633,0.01213,7.0174,0.00000,0.00089,-0.00775,-4.1808,0.61018,0.60974,0.03876,0.2226,-1.21323,-1.21344,0.00202,4.3148,0.00000,-0.00695,0.05813,11.3301,0.61018,0.61046,-0.06588,-0.2226,-1.21323,-1.21190,-0.02022,3.4139,0.00000,0.01185,-0.13177,-15.8572,0.61018,0.61177,0.03100,-1.8801,-1.21323,-1.21317,0.00809,4.8363
0.4060,B,-0.01277,-0.00008,-2.24461,-0.01704,0.01278,-0.01385,-0.56144,-0.01915,9.58758,-0.433597,0.002807,-0.005737,0.901084,79,30.571,10.460,101,15,33,15,0.00000,-0.00476,-0.01938,7.9163,0.61018,0.60702,-0.01163,3.3644,-1.21323,-1.21633,-0.00404,7.0174,0.00000,0.00092,0.04263,-4.1808,0.61018,0.60974,0.03876,0.3463,-1.21323,-1.21344,-0.00404,4.2674,0.00000,-0.00701,-0.03876,11.4291,0.61018,0.61049,-0.04263,-0.2226,-1.21323,-1.21187,0.03437,3.2242,0.00000,0.01194,0.00388,-16.0551,0.61018,0.61180,0.02713,-1.8801,-1.21323,-1.21318,-0.01011,4.8363
0.4080,B,-0.01277,-0.00007,-2.24460,-0.01491,0.01278,0.01172,-0.56144,-0.01915,9.58758,-0.433603,0.002800,-0.005741,0.901081,79,30.580,10.289,101,15,32,15,0.00000,-0.00470,0.11627,7.9410,0.61018,0.60702,-0.03876,3.4386,-1.21323,-1.21636,-0.03842,7.1123,0.00000,0.00089,0.00000,-4.2055,0.61018,0.60974,0.01938,0.1484,-1.21323,-1.21344,-0.00404,4.2674,0.00000,-0.00701,-0.03876,11.3549,0.61018,0.61049,-0.03876,-0.1732,-1.21323,-1.21189,0.00000,3.2242,0.00000,0.01191,-0.01163,-16.1046,0.61018,0.61180,0.10464,-1.7812,-1.21323,-1.21318,-0.00809,4.8363
0.4100,B,-0.01279,-0.00005,-2.24459,-0.03196,-0.00426,-0.00533,-0.56144,-0.01915,9.58758,-0.433608,0.002798,-0.005753,0.901079,79,30.580,10.289,101,15,32,15,0.00000,-0.00476,0.00000,7.8668,0.61018,0.60705,0.00775,3.3891,-1.21323,-1.21636,-0.03842,7.1123,0.00000,0.00092,0.02325,-4.2797,0.61018,0.60974,-0.00775,0.1484,-1.21323,-1.21344,-0.00202,4.2674,0.00000,-0.00698,0.00388,11.2312,0.61018,0.61049,-0.03876,-0.2474,-1.21323,-1.21190,-0.02831,3.4139,0.00000,0.01185,-0.13952,-16.0551,0.61018,0.61177,-0.05426,-1.9791,-1.21323,-1.21320,-0.01618,4.9786
0.4120,B,-0.01282,-0.00004,-2.24453,-0.02450,0.00746,0.02024,-0.64404,-0.03352,9.53012,-0.433632,0.002798,-0.005765,0.901068,79,30.580,10.323,101,15,32,15,0.00000,-0.00476,0.03100,7.9163,0.61018,0.60702,-0.03876,3.5376,-1.21323,-1.21633,0.00607,7.0648,0.00000,0.00089,-0.01550,-4.3292,0.61018,0.60977,0.05813,0.2226,-1.21323,-1.21345,-0.03033,4.2674,0.00000,-0.00698,0.00000,11.3549,0.61018,0.61053,0.00000,-0.2474,-1.21323,-1.21189,-0.00404,3.2716,0.00000,0.01191,-0.01550,-16.0304,0.61018,0.61177,0.00000,-1.8306,-1.21323,-1.21318,-0.01011,4.8837
0.4140,B,-0.01283,-0.00003,-2.24453,-0.02663,0.01065,0.00320,-0.64404,-0.03352,9.53012,-0.433634,0.002794,-0.005775,0.901066,79,30.580,10.357,101,15,32,15,0.00000,-0.00476,0.04651,7.9410,0.61018,0.60705,-0.03876,3.4634,-1.21323,-1.21631,0.04651,7.0648,0.00000,0.00092,0.03876,-4.1808,0.61018,0.60980,0.07363,0.1237,-1.21323,-1.21344,0.00000,4.2674,0.00000,-0.00701,-0.07363,11.2312,0.61018,0.61056,0.03876,-0.1484,-1.21323,-1.21186,0.05257,3.2242,0.00000,0.01185,-0.13952,-15.8325,0.61018,0.61186,0.08526,-2.0285,-1.21323,-1.21320,-0.05662,4.9786
0.4160,B,-0.01286,0.00004,-2.24449,-0.02344,0.00852,0.00639,-0.56862,-0.07063,9.55167,-0.433651,0.002772,-0.005800,0.901058,79,30.571,10.323,101,15,32,15,0.00000,-0.00482,-0.03876,7.8668,0.61018,0.60705,-0.06976,3.2655,-1.21323,-1.21633,0.01213,7.1123,0.00000,0.00089,-0.01163,-4.2797,0.61018,0.60977,0.00000,0.2721,-1.21323,-1.21345,-0.02629,4.2674,0.00000,-0.00698,-0.01550,11.3549,0.61018,0.61053,-0.02713,-0.2226,-1.21323,-1.21187,0.02426,3.2716,0.00000,0.01191,-0.01550,-15.8325,0.61018,0.61183,0.02325,-1.9791,-1.21323,-1.21320,-0.03842,5.0260
0.4180,B,-0.01287,0.00003,-2.24448,-0.02557,-0.01491,0.00639,-0.56862,-0.07063,9.55167,-0.433655,0.002779,-0.005804,0.901056,79,30.580,10.391,101,15,32,15,0.00000,-0.00476,0.05038,7.8668,0.61018,0.60708,-0.01163,3.4881,-1.21323,-1.21633,0.00000,7.0174,0.00000,0.00089,0.00000,-4.1808,0.61018,0.60974,-0.01938,0.2721,-1.21323,-1.21344,0.01011,4.3148,0.00000,-0.00692,-0.03876,11.2559,0.61018,0.61053,-0.03876,-0.2226,-1.21323,-1.21187,0.01618,3.2242,0.00000,0.01191,-0.03100,-16.1046,0.61018,0.61180,-0.01938,-1.7812,-1.21323,-1.21318,-0.00809,4.8837
0.4200,B,-0.01287,0.00002,-2.24446,-0.02237,0.00107,0.00000,-0.56862,-0.07063,9.55167,-0.433664,0.002783,-0.005803,0.901052,79,30.580,10.255,101,15,32,15,0.00000,-0.00479,0.01938,8.0152,0.61018,0.60708,-0.03876,3.3891,-1.21323,-1.21631,0.02629,7.0174,0.00000,0.00089,-0.01938,-4.1560,0.61018,0.60980,0.02325,0.1732,-1.21323,-1.21344,0.00404,4.2674,0.00000,-0.00692,0.06588,11.2559,0.61018,0.61053,-0.04263,-0.2474,-1.21323,-1.21187,0.01618,3.2242,0.00000,0.01185,-0.10076,-15.7583,0.61018,0.61180,-0.01938,-1.7812,-1.21323,-1.21317,0.01213,4.8837
0.4220,B,-0.01289,0.00003,-2.24443,-0.01172,0.00852,0.01811,-0.58538,-0.04908,9.50019,-0.433680,0.002781,-0.005815,0.901044,79,30.580,10.391,101,15,32,15,0.00000,-0.00482,-0.01938,8.0647,0.61018,0.60708,0.00775,3.3891,-1.21323,-1.21631,0.03235,7.0648,0.00000,0.00089,-0.01163,-4.2797,0.61018,0.60980,0.02713,0.2226,-1.21323,-1.21344,-0.01011,4.2199,0.00000,-0.00698,-0.01163,11.3549,0.61018,0.61056,-0.00388,-0.2721,-1.21323,-1.21186,0.04044,3.3191,0.00000,0.01185,-0.12789,-16.2283,0.61018,0.61186,0.03100,-2.0780,-1.21323,-1.21318,-0.01011,4.8837
0.4240,B,-0.01290,0.00007,-2.24440,-0.02663,0.00320,0.00746,-0.58538,-0.04908,9.50019,-0.433694,0.002769,-0.005828,0.901037,79,30.580,10.391,101,15,32,15,0.00000,-0.00482,-0.01163,8.0399,0.61018,0.60708,-0.05426,3.2902,-1.21323,-1.21631,0.03235,7.0174,0.00000,0.00089,-0.01550,-4.2055,0.61018,0.60977,0.00000,0.2474,-1.21323,-1.21344,-0.00404,4.2674,0.00000,-0.00698,-0.05038,11.2807,0.61018,0.61056,0.00775,-0.1732,-1.21323,-1.21187,0.02224,3.3191,0.00000,0.01185,-0.09301,-16.1788,0.61018,0.61183,0.03100,-1.7317,-1.21323,-1.21317,0.02426,5.0260
0.4260,B,-0.01292,0.00006,-2.24437,-0.01917,-0.01065,0.01704,-0.58538,-0.04908,9.50019,-0.433706,0.002773,-0.005836,0.901031,79,30.580,10.391,101,15,32,15,0.00000,-0.00482,-0.01550,7.9657,0.61018,0.60711,-0.00775,3.2902,-1.21323,-1.21633,0.00000,6.9700,0.00000,0.00089,0.01163,-4.1560,0.61018,0.60977,-0.01550,0.1484,-1.21323,-1.21344,0.00000,4.4096,0.00000,-0.00695,0.01550,11.1570,0.61018,0.61059,0.05038,-0.2474,-1.21323,-1.21186,-0.02224,3.4139,0.00000,0.01188,-0.05813,-15.9067,0.61018,0.61186,0.03876,-1.8306,-1.21323,-1.21318,-0.01618,4.8837
0.4300,B,-0.01296,0.00005,-2.24434,-0.02237,-0.01065,0.00107,-0.57102,-0.10415,9.40442,-0.433720,0.002787,-0.005852,0.901024,79,30.580,10.391,101,15,32,15,0.00000,-0.00482,0.04263,8.0152,0.61018,0.60714,0.05426,3.3644,-1.21323,-1.21631,0.03033,7.0174,0.00000,0.00089,0.00388,-4.1066,0.61018,0.60983,0.08914,0.1237,-1.21323,-1.21344,0.00202,4.2674,0.00000,-0.00695,0.01550,11.2807,0.61018,0.61056,-0.03876,-0.2721,-1.21323,-1.21186,0.02224,3.2242,0.00000,0.01185,-0.07363,-15.8078,0.61018,0.61186,0.06976,-1.8801,-1.21323,-1.21320,-0.03640,4.9786
0.4320,B,-0.01298,0.00007,-2.24431,-0.03196,0.01811,0.01811,-0.57102,-0.10415,9.40442,-0.433732,0.002781,-0.005862,0.901019,79,30.571,10.425,101,15,32,15,0.00000,-0.00482,0.01938,8.0647,0.61018,0.60711,-0.00775,3.3891,-1.21323,-1.21631,0.01820,7.0174,0.00000,0.00089,0.03488,-4.2302,0.61018,0.60980,0.02713,0.2226,-1.21323,-1.21344,0.00000,4.2674,0.00000,-0.00701,-0.00388,11.2559,0.61018,0.61059,0.01550,-0.2721,-1.21323,-1.21186,0.01213,3.2242,0.00000,0.01194,0.07363,-16.1541,0.61018,0.61183,0.00000,-1.8059,-1.21323,-1.21318,-0.02224,4.8363
0.4340,B,-0.01299,0.00011,-2.24428,-0.01917,0.01811,0.01598,-0.51356,-0.10295,9.42358,-0.433745,0.002771,-0.005877,0.901012,79,30.571,10.494,101,15,32,15,0.00000,-0.00482,0.03876,7.9657,0.61018,0.60708,-0.06976,3.4386,-1.21323,-1.21633,-0.01011,7.0174,0.00000,0.00089,0.03100,-4.1066,0.61018,0.60983,0.05038,0.2226,-1.21323,-1.21344,-0.01213,4.3148,0.00000,-0.00695,0.00000,11.2312,0.61018,0.61059,0.00775,-0.2721,-1.21323,-1.21186,0.02022,3.2242,0.00000,0.01194,0.06588,-15.9315,0.61018,0.61183,0.01938,-1.8306,-1.21323,-1.21318,-0.01415,4.8837
0.4360,B,-0.01304,0.00009,-2.24420,-0.02770,-0.01278,0.00959,-0.50996,-0.13886,9.35534,-0.433780,0.002788,-0.005895,0.900995,79,30.571,10.357,101,15,32,15,0.00000,-0.00482,0.05813,7.9657,0.61018,0.60711,-0.03100,3.4634,-1.21323,-1.21631,0.02224,7.0174,0.00000,0.00089,0.06201,-4.0818,0.61018,0.60977,-0.02325,0.1484,-1.21323,-1.21344,-0.00202,4.2674,0.00000,-0.00695,-0.01938,11.1570,0.61018,0.61056,-0.08526,-0.3216,-1.21323,-1.21186,0.02022,3.2716,0.00000,0.01194,0.06588,-16.1788,0.61018,0.61186,0.05426,-2.0285,-1.21323,-1.21320,-0.04651,4.9786
0.4380,B,-0.01307,0.00011,-2.24417,-0.02344,0.00213,0.01278,-0.50996,-0.13886,9.35534,-0.433796,0.002785,-0.005912,0.900988,79,30.580,10.323,101,15,32,15,0.00000,-0.00485,0.02325,8.0152,0.61018,0.60711,-0.03100,3.4634,-1.21323,-1.21631,0.01213,7.0648,0.00000,0.00089,0.06201,-4.2055,0.61018,0.60983,0.09301,0.1484,-1.21323,-1.21344,0.00404,4.3148,0.00000,-0.00698,-0.07751,11.2312,0.61018,0.61059,-0.00388,-0.2721,-1.21323,-1.21187,-0.01011,3.2242,0.00000,0.01191,-0.00388,-16.1788,0.61018,0.61180,0.00388,-1.7812,-1.21323,-1.21320,-0.03437,4.8837
0.4400,B,-0.01308,0.00014,-2.24413,-0.01811,0.00533,0.01172,-0.50996,-0.13886,9.35534,-0.433812,0.002776,-0.005921,0.900980,79,30.571,10.323,101,15,32,15,0.00000,-0.00482,0.08914,8.0399,0.61018,0.60711,-0.03488,3.4386,-1.21323,-1.21633,-0.01011,7.0648,0.00000,0.00089,0.05038,-4.1560,0.61018,0.60980,0.08139,0.3216,-1.21323,-1.21345,-0.01820,4.3148,0.00000,-0.00695,-0.03488,11.2807,0.61018,0.61056,-0.04651,-0.2721,-1.21323,-1.21186,-0.01618,3.0820,0.00000,0.01182,-0.16665,-16.1046,0.61018,0.61183,0.04263,-1.9048,-1.21323,-1.21318,-0.02022,4.8837
0.4420,B,-0.01310,0.00015,-2.24412,-0.02024,0.00639,0.00533,-0.46567,-0.19273,9.41280,-0.433818,0.002772,-0.005934,0.900977,79,30.571,10.460,101,15,32,15,0.00000,-0.00488,0.01163,8.0647,0.61018,0.60711,-0.06201,3.2655,-1.21323,-1.21631,0.01415,7.0174,0.00000,0.00086,0.00775,-4.2055,0.61018,0.60977,-0.01163,0.1484,-1.21323,-1.21344,0.00607,4.2674,0.00000,-0.00698,-0.08526,11.2559,0.61018,0.61059,0.00775,-0.2474,-1.21323,-1.21186,0.02022,3.2242,0.00000,0.01191,0.00775,-15.9067,0.61018,0.61180,-0.02325,-1.8059,-1.21323,-1.21318,-0.01213,5.0260
0.4440,B,-0.01311,0.00016,-2.24410,-0.02344,0.00107,0.00320,-0.46567,-0.19273,9.41280,-0.433827,0.002770,-0.005942,0.900973,79,30.580,10.425,101,15,31,15,0.00000,-0.00491,-0.04651,7.9657,0.61018,0.60711,-0.02713,3.2655,-1.21323,-1.21630,0.04651,7.0174,0.00000,0.00079,-0.07363,-4.1066,0.61018,0.60977,0.00775,0.3216,-1.21323,-1.21344,0.00000,4.2199,0.00000,-0.00692,0.02325,11.2807,0.61018,0.61059,-0.00388,-0.2474,-1.21323,-1.21187,-0.01011,3.2716,0.00000,0.01194,0.07363,-16.1788,0.61018,0.61180,0.00000,-1.7812,-1.21323,-1.21318,-0.02224,4.8837
0.4460,B,-0.01313,0.00018,-2.24408,-0.01065,-0.00639,0.00852,-0.52792,-0.21189,9.34457,-0.433838,0.002767,-0.005954,0.900967,79,30.571,10.562,101,15,31,15,0.00000,-0.00491,-0.03488,8.0647,0.61018,0.60711,-0.03876,3.4386,-1.21323,-1.21631,0.00202,7.0648,0.00000,0.00086,0.01550,-4.2302,0.61018,0.60980,0.05813,0.2474,-1.21323,-1.21344,0.00000,4.2674,0.00000,-0.00698,-0.06588,11.4538,0.61018,0.61056,-0.03876,-0.2226,-1.21323,-1.21187,-0.01415,3.2716,0.00000,0.01188,0.05426,-16.0551,0.61018,0.61180,0.01550,-1.6327,-1.21323,-1.21317,0.00809,4.8837
0.4480,B,-0.01315,0.00019,-2.24406,-0.02770,0.00426,0.01172,-0.52792,-0.21189,9.34457,-0.433844,0.002766,-0.005966,0.900964,79,30.580,10.391,101,15,31,15,0.00000,-0.00488,0.01938,7.9657,0.61018,0.60711,-0.02713,3.3397,-1.21323,-1.21631,0.00202,7.0648,0.00000,0.00082,0.00775,-4.1066,0.61018,0.60977,0.00000,0.2474,-1.21323,-1.21344,0.01011,4.2199,0.00000,-0.00695,-0.03876,11.2312,0.61018,0.61059,-0.01163,-0.2721,-1.21323,-1.21186,0.01415,3.2242,0.00000,0.01191,0.02325,-15.7583,0.61018,0.61180,0.01550,-1.6327,-1.21323,-1.21318,-0.00809,4.9786
0.4500,B,-0.01317,0.00021,-2.24405,-0.02770,0.01065,0.00852,-0.52792,-0.21189,9.34457,-0.433849,0.002763,-0.005977,0.900962,79,30.571,10.425,101,15,31,15,0.00000,-0.00488,0.03876,8.0152,0.61018,0.60708,-0.08914,3.3891,-1.21323,-1.21633,-0.02629,7.0174,0.00000,0.00082,-0.01938,-4.2302,0.61018,0.60977,0.01550,0.1237,-1.21323,-1.21344,0.01415,4.3148,0.00000,-0.00695,-0.03488,11.2559,0.61018,0.61056,-0.04651,-0.2474,-1.21323,-1.21186,0.00000,3.2242,0.00000,0.01185,-0.10851,-16.1788,0.61018,0.61180,0.05813,-1.8306,-1.21323,-1.21317,0.02224,4.8837
0.4520,B,-0.01317,0.00020,-2.24403,-0.01704,-0.00639,0.01065,-0.50757,-0.27294,9.37689,-0.433859,0.002766,-0.005979,0.900957,79,30.580,10.460,101,15,31,15,0.00000,-0.00491,0.00000,8.1142,0.61018,0.60711,-0.01550,3.3891,-1.21323,-1.21631,0.00202,7.0174,0.00000,0.00086,0.05813,-4.1066,0.61018,0.60977,-0.00388,0.2226,-1.21323,-1.21345,-0.02022,4.3148,0.00000,-0.00689,0.08139,11.2312,0.61018,0.61059,0.00388,-0.3216,-1.21323,-1.21184,0.04044,3.2716,0.00000,0.01191,0.00388,-15.9562,0.61018,0.61180,0.01163,-1.7812,-1.21323,-1.21318,-0.02022,4.8837
0.4540,B,-0.01320,0.00022,-2.24402,-0.02770,0.00639,0.01065,-0.50757,-0.27294,9.37689,-0.433865,0.002763,-0.005995,0.900954,79,30.571,10.391,101,15,31,15,0.00000,-0.00491,0.02325,8.0647,0.61018,0.60714,-0.05813,3.3644,-1.21323,-1.21631,0.01618,7.0174,0.00000,0.00082,0.00388,-4.1808,0.61018,0.60974,-0.00775,0.2226,-1.21323,-1.21347,-0.04448,4.3148,0.00000,-0.00695,-0.02713,11.2559,0.61018,0.61056,-0.05813,-0.2226,-1.21323,-1.21186,-0.02022,3.2242,0.00000,0.01194,0.06976,-15.8572,0.61018,0.61177,0.04651,-1.6822,-1.21323,-1.21317,0.01213,4.8837
0.4560,B,-0.01321,0.00023,-2.24400,-0.01598,0.00000,0.00533,-0.50757,-0.27294,9.37689,-0.433873,0.002763,-0.005999,0.900950,79,30.571,10.425,101,15,31,16,0.00000,-0.00491,0.03100,8.1636,0.61018,0.60711,-0.04651,3.3891,-1.21323,-1.21631,0.00809,6.9700,0.00000,0.00082,0.06201,-4.0818,0.61018,0.60977,0.02325,0.2226,-1.21323,-1.21345,-0.02022,4.2674,0.00000,-0.00698,-0.01163,11.2807,0.61018,0.61056,-0.04263,-0.2226,-1.21323,-1.21186,-0.00404,3.2242,0.00000,0.01194,0.03488,-16.3273,0.61018,0.61180,0.04263,-1.8059,-1.21323,-1.21317,0.00809,4.9786
0.4580,B,-0.01324,0.00027,-2.24397,-0.02024,0.00639,0.00107,-0.49799,-0.28132,9.39485,-0.433886,0.002751,-0.006022,0.900944,79,30.562,10.562,101,15,31,16,0.00000,-0.00497,-0.06588,7.9410,0.61018,0.60708,-0.03100,3.4881,-1.21323,-1.21631,0.01213,7.0648,0.00000,0.00082,0.03876,-4.1066,0.61018,0.60974,0.00000,0.2721,-1.21323,-1.21345,-0.00809,4.3148,0.00000,-0.00692,0.04651,11.3301,0.61018,0.61059,0.00000,-0.2721,-1.21323,-1.21183,0.06268,2.9871,0.00000,0.01194,0.05813,-16.0304,0.61018,0.61177,0.04263,-1.9791,-1.21323,-1.21320,-0.03640,4.9786
0.4600,B,-0.01325,0.00026,-2.24396,-0.02131,-0.01172,0.00320,-0.49799,-0.28132,9.39485,-0.433889,0.002757,-0.006026,0.900942,79,30.571,10.460,101,15,31,16,0.00000,-0.00497,-0.06588,7.9410,0.61018,0.60708,-0.03100,3.4881,-1.21323,-1.21631,0.01213,7.0648,0.00000,0.00079,0.00000,-4.0076,0.61018,0.60974,0.00000,0.2721,-1.21323,-1.21345,-0.00404,4.3148,0.00000,-0.00695,0.01550,11.3301,0.61018,0.61059,0.00000,-0.2721,-1.21323,-1.21183,0.06268,2.9871,0.00000,0.01188,-0.06201,-15.8572,0.61018,0.61177,0.04263,-1.9791,-1.21323,-1.21318,-0.01011,4.9786
0.4620,B,-0.01327,0.00025,-2.24397,-0.01278,-0.00320,0.00213,-0.56264,-0.28252,9.33260,-0.433884,0.002765,-0.006032,0.900944,79,30.571,10.357,101,15,31,16,0.00000,-0.00494,0.09301,8.2378,0.61018,0.60708,-0.03876,3.3644,-1.21323,-1.21631,0.00000,7.0648,0.00000,0.00082,0.05426,-4.0818,0.61018,0.60980,0.07751,0.1732,-1.21323,-1.21347,-0.00202,4.4096,0.00000,-0.00695,0.02325,11.3301,0.61018,0.61056,-0.03876,-0.2474,-1.21323,-1.21186,0.00202,3.2242,0.00000,0.01185,-0.13177,-16.1046,0.61018,0.61174,0.06588,-1.7812,-1.21323,-1.21318,-0.00607,4.9786
0.4640,B,-0.01328,0.00026,-2.24398,-0.01491,-0.00959,-0.00533,-0.56264,-0.28252,9.33260,-0.433883,0.002767,-0.006040,0.900945,79,30.580,10.425,101,15,31,16,0.00000,-0.00497,-0.01938,8.1389,0.61018,0.60708,-0.01550,3.5871,-1.21323,-1.21631,0.00202,7.0648,0.00000,0.00079,-0.01938,-4.1560,0.61018,0.60974,-0.05426,0.2721,-1.21323,-1.21344,-0.00607,4.3148,0.00000,-0.00695,0.00388,11.2312,0.61018,0.61056,-0.01163,-0.1732,-1.21323,-1.21186,0.01011,3.2242,0.00000,0.01191,-0.00388,-16.1046,0.61018,0.61177,0.01163,-2.0780,-1.21323,-1.21318,-0.00607,4.8363
0.4660,B,-0.01329,0.00029,-2.24399,-0.01704,0.02344,-0.00746,-0.40223,-0.29568,9.50259,-0.433879,0.002753,-0.006049,0.900947,79,30.571,10.323,101,15,31,16,0.00000,-0.00494,0.05038,8.1636,0.61018,0.60708,0.00775,3.5376,-1.21323,-1.21631,0.00000,7.0648,0.00000,0.00079,0.00000,-4.0818,0.61018,0.60980,0.12789,0.1237,-1.21323,-1.21347,-0.02224,4.3148,0.00000,-0.00695,0.04263,11.2807,0.61018,0.61056,-0.03488,-0.2721,-1.21323,-1.21186,0.01213,3.2242,0.00000,0.01191,-0.01550,-15.9315,0.61018,0.61177,0.12014,-1.8801,-1.21323,-1.21320,-0.00809,4.9786
